Timestamp, Acceleration x, Acceleration y, Acceleration z, Marker
40,0.0371094,-0.499023,0.963867,0
60,0.0175781,-0.834473,0.728516,0
80,0.00634766,-1.12256,0.196289,0
100,0.595215,-1.13232,-0.129395,0
120,1.2334,-0.779785,0.000976562,0
120,1.33691,-0.601562,0.0810547,0
160,1.17383,-0.443848,0.166016,0
180,0.790527,-0.655762,0.360352,0
200,0.378418,-0.725586,0.260742,0
220,0.166504,-0.769043,0.31543,0
240,0.186035,-0.82959,0.312012,0
260,0.462402,-1.02539,0.00830078,0
280,0.710449,-0.95166,0.0839844,0
300,0.830078,-0.831543,0.307617,0
320,0.701172,-0.871582,-0.0522461,0
340,0.514648,-0.875488,0.0932617,0
360,0.177734,-0.776367,0.202148,0
380,0.271973,-0.884277,0.205078,0
400,0.321777,-0.935059,0.210449,0
420,0.168457,-0.860352,0.17334,0
440,0,-0.779297,0.467773,0
460,-0.161133,-0.953613,0.431152,0
480,-0.23877,-0.951172,0.516113,0
500,-0.318359,-0.657715,0.587891,0
520,-0.205078,-0.28418,0.463379,0
540,0.177246,-0.250488,0.690918,0
560,0.230469,-0.439453,0.974121,0
580,0.145996,-0.649414,0.789551,0
600,0.0439453,-0.816895,0.846191,0
620,-0.0424805,-0.78125,0.884766,0
640,-0.104004,-0.610352,0.810547,0
660,-0.0966797,-0.600586,0.767578,0
680,-0.012207,-0.651367,0.654297,0
700,0.065918,-0.62793,0.513184,0
720,0.059082,-0.533691,0.414062,0
740,-0.116699,-0.453125,0.505859,0
760,-0.190918,-0.328613,0.530273,0
780,-0.398438,-0.210449,0.50293,0
800,-0.45752,-0.0419922,0.532715,0
820,-0.265625,0.291992,0.886719,0
840,0.081543,0.572754,0.974121,0
860,0.29248,0.487305,0.582031,0
880,0.40625,0.335449,0.674805,0
900,0.285645,0.325195,0.958496,0
910,0.00537109,0.459473,1.21631,0
930,-0.151855,0.396973,1.11816,0
950,0.00537109,0.25293,0.87793,0
970,0.163086,0.310059,0.935547,0
990,0.202148,0.379883,1.04736,0
1010,0.20166,0.423828,1.01562,0
1030,0.131836,0.452148,0.941895,0
1050,0.196777,0.324707,0.894043,0
1070,0.195312,0.183105,0.890625,0
1090,0.115723,0.105469,0.942871,0
1110,0.102051,0.129395,1.02344,0
1130,0.104492,0.195312,0.961426,0
1150,0.148438,0.23584,0.884766,0
1170,0.203613,0.213867,0.878418,0
1190,0.220703,0.15625,0.821289,0
1210,0.203125,0.196289,0.812988,0
1230,0.208008,0.198242,0.830078,0
1250,0.204102,0.173828,0.796387,0
1270,0.245117,0.155762,0.831055,0
1290,0.294922,0.167969,0.794922,0
1310,0.335938,0.121094,0.777832,0
1330,0.373535,0.116699,0.820801,0
1350,0.354004,0.13916,0.77832,0
1370,0.291992,0.187012,0.786133,0
1390,0.248535,0.223145,0.829102,0
1410,0.205566,0.259766,0.823242,0
1430,0.181152,0.267578,0.79834,0
1450,0.202637,0.273926,0.814941,0
1460,0.201172,0.303223,0.781738,0
1480,0.198242,0.252441,0.763672,0
1500,0.181641,0.254883,0.82666,0
1530,0.171875,0.273438,0.871582,0
1550,0.145996,0.262207,0.825195,0
1570,0.17627,0.280762,0.814941,0
1590,0.173828,0.300781,0.830566,0
1610,0.164062,0.284668,0.849121,0
1620,0.144531,0.23291,0.856934,0
1650,0.144043,0.183594,0.85498,0
1670,0.169922,0.156738,0.861816,0
1680,0.189941,0.15918,0.870117,0
1700,0.240723,0.223633,0.889648,0
1720,0.263184,0.268555,0.878906,0
1740,0.28125,0.294922,0.867188,0
1740,0.271484,0.305664,0.863281,0
1760,0.268555,0.3125,0.896973,0
1780,0.283691,0.323242,0.930664,0
1780,0.277344,0.304688,0.892578,0
1800,0.274414,0.29834,0.862305,0
1820,0.264648,0.263672,0.827637,0
1830,0.274902,0.262207,0.838867,0
1840,0.298828,0.259277,0.821289,0
1860,0.331055,0.258301,0.805664,0
1880,0.360352,0.229004,0.810059,0
1880,0.366699,0.201172,0.814453,0
1900,0.349609,0.184082,0.800293,0
1920,0.338867,0.1875,0.793945,0
1940,0.353027,0.220215,0.826172,0
1940,0.353027,0.248047,0.844727,0
1960,0.342773,0.271484,0.825684,0
1980,0.343262,0.300293,0.787598,0
2000,0.345215,0.305176,0.783203,0
2050,0.345703,0.277344,0.795898,0
2100,0.342773,0.229492,0.799805,0
2160,0.366699,0.23877,0.807129,0
2190,0.382324,0.213867,0.80127,0
2210,0.394531,0.226074,0.776855,0
2230,0.373535,0.245117,0.770508,0
2250,0.389648,0.23291,0.782227,0
2270,0.425293,0.259277,0.780762,0
2290,0.477539,0.285645,0.762207,0
2310,0.504395,0.29248,0.723633,0
2330,0.536621,0.319336,0.722656,0
2350,0.535156,0.325195,0.742188,0
2370,0.463379,0.31543,0.71875,0
2390,0.40332,0.274414,0.740234,0
2410,0.36084,0.25293,0.777832,0
2430,0.306152,0.210938,0.762207,0
2450,0.317871,0.243164,0.792969,0
2470,0.350586,0.273926,0.76709,0
2490,0.388184,0.29248,0.746582,0
2510,0.398926,0.300781,0.749512,0
2530,0.335938,0.287109,0.747559,0
2550,0.299316,0.30127,0.783691,0
2570,0.26123,0.292969,0.791504,0
2590,0.239258,0.309082,0.84082,0
2610,0.21582,0.203613,0.796387,0
2630,0.26416,0.196289,0.86377,0
2650,0.329102,0.195312,0.894531,0
2670,0.342285,0.220703,0.778809,0
2690,0.273438,0.202148,0.763184,0
2710,0.28125,0.251953,0.913086,0
2730,0.148926,0.26123,0.884277,0
2750,0.151367,0.239258,0.855957,0
2770,0.216797,0.218262,0.87207,0
2790,0.286621,0.189453,0.818359,0
2810,0.3125,0.162598,0.807617,0
2830,0.302734,0.181641,0.82959,0
2850,0.275879,0.202637,0.840332,0
2870,0.27832,0.191406,0.833496,0
2890,0.300293,0.208008,0.84082,0
2910,0.273438,0.197754,0.820312,0
2930,0.278809,0.232422,0.88623,0
2950,0.335449,0.220215,0.875977,0
2970,0.320801,0.18457,0.792969,0
2990,0.296387,0.223633,0.851074,0
3010,0.291504,0.18457,0.85791,0
3030,0.286621,0.164062,0.829102,0
3050,0.300293,0.185059,0.828125,0
3070,0.309082,0.164551,0.822266,0
3090,0.302734,0.161621,0.817383,0
3110,0.295898,0.134277,0.831055,0
3130,0.278809,0.133301,0.834473,0
3150,0.289062,0.141602,0.852051,0
3170,0.301758,0.155762,0.845703,0
3190,0.330566,0.191406,0.844727,0
3210,0.312988,0.201172,0.8125,0
3230,0.294922,0.185059,0.812988,0
3250,0.274414,0.151367,0.839355,0
3270,0.26416,0.155273,0.849121,0
3290,0.268066,0.162598,0.820312,0
3310,0.294434,0.165039,0.816895,0
3330,0.324219,0.195801,0.819824,0
3350,0.342285,0.249023,0.824219,0
3370,0.358887,0.233398,0.791504,0
3390,0.351562,0.211914,0.783203,0
3410,0.315918,0.148926,0.78418,0
3430,0.294434,0.120117,0.820801,0
3450,0.305664,0.141602,0.811035,0
3470,0.319824,0.178711,0.790527,0
3490,0.361328,0.192383,0.786621,0
3510,0.333496,0.15332,0.773926,0
3530,0.29834,0.12793,0.800293,0
3550,0.274902,0.078125,0.804688,0
3570,0.298828,0.0703125,0.782715,0
3580,0.34375,0.140137,0.802246,0
3600,0.383301,0.234375,0.749512,0
3620,0.4375,0.208984,0.718262,0
3640,0.547363,0.251465,0.769043,0
3660,0.601074,0.220215,0.708984,0
3680,0.541504,0.271973,0.713379,0
3700,0.417969,0.298828,0.658691,0
3720,0.247559,0.356934,0.670898,0
3740,0.0595703,0.388672,0.904785,0
3760,-0.294434,0.0683594,1.12842,0
3780,-0.300293,-0.186523,0.92334,0
3800,-0.0732422,-0.0244141,0.837402,0
3820,0.172363,0.210449,0.83252,0
3840,0.0942383,0.223145,0.870605,0
3860,-0.0341797,0.0732422,0.92627,0
3880,-0.0678711,0.059082,0.883789,0
3900,-0.0634766,0.0458984,0.892578,0
3920,-0.0473633,0.0561523,0.927734,0
3940,0.0512695,0.0869141,0.871582,0
3960,0.0263672,0.120605,0.92627,0
3980,-0.00390625,0.0571289,0.918945,0
4000,-0.0605469,-0.0571289,0.978516,0
4020,-0.0249023,0.00439453,0.939941,0
4040,0.0166016,0.0390625,0.942871,0
4060,-0.0161133,0.0463867,0.973633,0
4080,-0.0180664,-0.0258789,0.969238,0
4100,-0.0166016,0.0776367,0.993164,0
4120,-0.0400391,0.0732422,0.961914,0
4140,-0.0527344,0.0581055,0.952637,0
4160,-0.0078125,0.0556641,0.955566,0
4180,-0.0351562,0.0356445,1.00293,0
4200,-0.0390625,0.0673828,1.11621,0
4220,0.0107422,0.0771484,1.05371,0
4240,0.0112305,0.0888672,1.00928,0
4260,0.00244141,-0.081543,0.884766,0
4280,0.145996,-0.0952148,0.935059,0
4300,0.302246,-0.0649414,0.867676,0
4320,0.421875,-0.171875,0.790527,0
4340,0.231445,-0.23291,0.611816,0
4360,0.279297,0.353516,0.969238,0
4380,0.165527,-0.456543,0.400391,0
4400,0.286133,-0.137695,0.968262,0
4420,0.461914,-0.205566,0.82373,0
4440,0.477051,-0.18457,0.644043,0
4460,0.553711,0.246582,0.633789,0
4480,0.292969,0.0678711,0.148438,0
4500,0.334961,0.199219,0.796875,0
4520,-0.138672,-0.59082,0.930664,0
4540,0.0693359,-0.863281,0.764648,0
4560,0.450195,-0.572754,0.982422,0
4580,0.581543,-0.214355,0.767578,0
4600,0.450684,-0.125488,0.712891,0
4620,0.321777,-0.396973,0.870605,0
4640,0.228516,-0.614746,0.793945,0
4660,0.260254,-0.570801,0.604492,0
4680,0.317871,-0.491699,0.570801,0
4700,0.298828,-0.51123,0.577148,0
4720,0.327148,-0.469238,0.71875,0
4740,0.360352,-0.504395,0.763184,0
4760,0.369629,-0.59082,0.740723,0
4780,0.379395,-0.570312,0.806152,0
4800,0.458984,-0.558594,0.780762,0
4820,0.399902,-0.571777,0.786133,0
4840,0.330078,-0.562012,0.731445,0
4860,0.275391,-0.542969,0.66748,0
4880,0.325195,-0.614746,0.614258,0
4900,0.376465,-0.678223,0.663086,0
4920,0.283203,-0.810059,0.755859,0
4940,0.170898,-0.953613,0.740234,0
4960,0.0961914,-0.846191,0.86084,0
4980,0.0263672,-0.724609,0.935059,0
5000,0.132812,-0.340332,0.733887,0
5020,0.0361328,0.108887,0.79541,0
5040,0.00927734,0.256348,0.226074,0
5060,0.10498,-0.339844,0.505371,0
5080,1.19141,-0.758789,0.229492,0
5100,1.2915,-0.937012,0.129395,0
5120,1.29541,-0.640625,0.476074,0
5140,0.974609,-0.378418,0.489746,0
5160,0.719238,-0.380371,0.389648,0
5180,0.479004,-0.274414,0.463379,0
5200,0.383301,-0.326172,0.554199,0
5220,0.291992,-0.438965,0.555176,0
5240,0.234375,-0.551758,0.420898,0
5260,0.385742,-0.512207,0.660156,0
5280,0.525879,-0.537598,0.430664,0
5300,0.689453,-0.746582,0.240723,0
5320,0.835938,-0.584961,-0.23584,0
5340,0.49707,-0.562988,-0.143555,0
5360,1.06299,-0.524414,0.624512,0
5380,0.414551,-1.4834,0.00878906,0
5400,-0.0610352,-2.3125,0.133301,0
5420,0.231445,-1.41748,1.14404,0
5440,0.381348,-0.978516,0.0771484,0
5460,0.465332,-0.512695,-0.415527,0
5480,0.591309,-0.595215,0.338379,0
5500,0.32666,-1.32568,0.53418,0
5520,0.345703,-1.40479,0.494141,0
5540,0.671387,-0.977539,0.286621,0
5560,0.516602,-0.554688,0.277832,0
5580,0.160645,-0.398438,0.557617,0
5600,0.250977,-0.494629,0.696289,0
5620,0.268066,-0.509766,0.731445,0
5640,0.308594,-0.27002,0.634766,0
5660,0.134277,-0.3125,0.483887,0
5680,0.059082,-0.47998,0.762695,0
5700,0.0830078,-0.561035,0.981934,0
5720,-0.209961,-0.518066,0.584473,0
5740,-0.31543,-0.212402,0.606934,0
5760,0.00732422,0.0258789,0.869629,0
5780,0.163574,-0.150879,0.773438,0
5800,0.15332,-0.322266,0.967285,0
5820,-0.21875,-0.55957,0.896973,0
5840,-0.207031,-0.309082,0.671875,0
5860,-0.0776367,-0.0844727,0.415527,0
5880,-0.385254,0.237305,0.77002,0
5900,-0.291992,0.444824,0.712891,0
5920,-0.467285,0.401855,0.817871,0
5940,0.349121,0.500488,-0.015625,0
5960,-0.345703,0.966797,0.777832,0
5980,-0.143555,0.950195,0.619629,0
6000,-0.278809,1.09912,0.179688,0
6020,-0.251953,1.11914,0.640625,0
6040,-0.407227,1.00977,0.414551,0
6060,-0.229492,0.999023,0.0258789,0
6080,-0.163574,1.12451,0.282715,0
6100,-0.13623,1.125,0.303711,0
6120,-0.331055,0.992188,0.249023,0
6140,-0.512695,0.73584,0.00341797,0
6160,-0.478516,0.493164,-0.21875,0
6180,-0.136719,0.461914,0.660645,0
6200,-0.211914,-0.161621,1.56885,0
6220,-0.190918,-0.881836,1.06885,0
6230,-0.287109,-1.14697,1.13721,0
6250,-0.34375,-0.913086,1.24561,0
6270,-0.300293,-0.785156,1.08301,0
6290,-0.21875,-0.550781,0.757324,0
6310,0.0654297,-0.305176,0.730957,0
6330,0.242188,0.239746,0.855469,0
6350,0.769043,0.750488,0.987305,0
6370,0.947266,0.924316,0.632324,0
6390,0.912109,0.546875,0.47998,0
6410,0.821289,0.173828,0.177246,0
6430,0.776367,0.390137,0.387207,0
6450,0.178223,0.609863,0.98291,0
6470,-0.399902,0.541504,1.37256,0
6490,-0.398926,0.074707,0.791016,0
6510,-0.27002,-0.185059,0.580566,0
6530,0.302734,-0.0263672,1.62402,0
6550,-0.140625,-0.926758,1.47949,0
6570,0.0786133,0.319824,0.860352,0
6590,0.520508,0.906738,0.958984,0
6610,-0.101074,0.137207,0.291992,0
6630,-0.230957,-0.0698242,1.21973,0
6650,0.373535,0.120117,0.702637,0
6670,0.0244141,0.240723,0.535645,0
6690,0.566406,0.224609,1.23975,0
6710,0.203125,0.17627,0.83252,0
6730,-0.0200195,0.309082,0.790039,0
6750,0.121582,0.139648,0.833008,0
6770,-0.607422,-0.117676,0.888184,0
6790,0.012207,0.336426,0.407227,0
6810,0.481445,-0.446777,0.648926,0
6830,0.6875,-0.582031,0.964844,0
6850,1.04297,-0.569336,0.406738,0
6870,1.12842,0.0683594,0.444824,0
6890,0.549805,0.199707,0.739746,0
6910,0.504395,0.223633,0.768555,0
6930,0.586426,-0.0546875,0.5625,0
6950,0.900391,-0.29834,0.803223,0
6970,0.774414,-0.196777,0.638672,0
6990,0.462891,-0.0683594,0.703125,0
7010,0.773438,-0.183594,0.76123,0
7030,0.851562,-0.175781,0.751953,0
7050,0.516113,0.320801,0.700195,0
7070,0.520508,0.0830078,0.680664,0
7090,0.496582,-0.124023,0.833008,0
7110,0.416016,0.128906,0.703613,0
7130,0.417969,0.0698242,0.680176,0
7150,0.517578,-0.097168,0.608398,0
7170,0.308594,-0.156738,0.843262,0
7190,0.291992,0.0454102,0.893066,0
7210,0.461914,-0.127441,0.600098,0
7230,0.321289,0.180664,1.08838,0
7250,0.489258,-0.03125,0.848145,0
7270,0.681152,-0.352539,0.652832,0
7290,0.774902,-0.253418,0.878906,0
7310,0.613281,0.0395508,0.780762,0
7330,0.55127,0.170898,0.484863,0
7350,0.375977,0.189453,0.764648,0
7370,0.211914,-0.0161133,0.949219,0
7390,0.354004,-0.0546875,0.936035,0
7410,0.426758,0.102051,0.808105,0
7430,0.316406,0.216797,0.871094,0
7450,0.202637,0.136719,0.819336,0
7470,0.046875,0.10498,0.901855,0
7490,-0.164062,0.243164,0.838379,0
7510,-0.148926,0.493652,0.78418,0
7530,0.03125,0.526367,0.649414,0
7550,0.166992,0.413574,0.66748,0
7570,0.0737305,0.386719,0.829102,0
7580,-0.218262,0.312012,0.811035,0
7580,-0.0908203,0.42041,0.820801,0
7620,0.015625,0.460449,0.787109,0
7640,0.132324,0.398438,0.879883,0
7660,0.252441,0.20166,0.668945,0
7680,0.181641,0.371582,0.803711,0
7710,0.0561523,0.364746,0.736816,0
7730,0.0556641,0.284668,0.924805,0
7750,0.043457,0.240234,0.65918,0
7770,-0.00927734,0.471191,0.670898,0
7790,0.012207,0.229492,0.719238,0
7810,-0.263672,0.263184,0.991211,0
7830,0.0371094,0.862793,0.848145,0
7850,0.123047,0.0878906,0.656738,0
7870,0.330566,0.480957,0.91748,0
7890,0.128906,0.33252,0.681152,0
7910,0.0991211,0.390137,0.949219,0
7930,0.00634766,0.493652,0.690918,0
7950,0.0908203,0.655762,0.67041,0
7970,0.127441,0.432129,0.605957,0
7990,0.3125,0.0678711,0.744629,0
8010,0.0610352,0.242676,1.03418,0
8030,0.0175781,0.506348,0.662598,0
8050,0.081543,0.473145,0.712891,0
8070,-0.00732422,0.496094,0.924805,0
8090,0.0214844,0.564453,0.824707,0
8110,-0.0463867,0.646973,0.878906,0
8130,-0.0317383,0.527832,0.875,0
8150,0.541992,0.19873,0.881348,0
8170,0.167969,0.32666,0.768555,0
8190,0.115234,0.247559,0.594238,0
8210,-0.29834,0.48584,0.884277,0
8230,-0.15332,0.544434,0.583984,0
8250,0.0703125,0.632812,0.671875,0
8270,0.148438,0.567871,0.835938,0
8290,0.325684,0.948242,1.04053,0
8310,-0.0957031,0.71875,0.460938,0
8330,-0.139648,0.607422,0.70166,0
8350,0.174316,0.510742,0.687988,0
8370,0.35498,0.461426,0.72998,0
8390,0.375488,0.17041,0.884277,0
8410,0.162109,0.292969,0.739258,0
8430,0.132324,0.520508,0.67627,0
8450,0.12793,0.537598,0.844238,0
8470,0.183594,0.515625,0.736816,0
8490,0.196777,0.465332,0.646973,0
8510,0.171875,0.481445,0.669434,0
8530,0.211426,0.416992,0.686523,0
8550,0.150879,0.503906,0.72168,0
8570,0.171387,0.560059,0.631836,0
8590,0.188965,0.510742,0.616211,0
8610,0.162109,0.606445,0.547852,0
8630,-0.00732422,0.661621,0.600586,0
8650,-0.0512695,0.771973,0.606445,0
8670,-0.0126953,0.688477,0.758789,0
8690,0.0551758,0.617188,0.828613,0
8700,0.0908203,0.598633,0.680176,0
8720,0.131348,0.55957,0.688965,0
8720,0.125,0.53125,0.671875,0
8740,0.065918,0.575195,0.665527,0
8760,0.0478516,0.592285,0.84375,0
8780,0.0458984,0.632324,0.791016,0
8840,0.0581055,0.658203,0.729004,0
8840,0.081543,0.58252,0.741211,0
8860,0.12793,0.567383,0.679199,0
8880,0.101562,0.550781,0.635254,0
8900,0.174316,0.450195,0.727051,0
8920,0.289062,0.362305,0.751953,0
8940,-0.0834961,0.465332,0.599121,0
8960,-0.474609,0.48877,0.360352,0
8980,1.12451,0.910645,1.45508,0
9000,-0.168945,0.660645,0.864746,0
9020,0.344238,0.755859,0.442871,0
9040,0.128418,0.427246,0.827148,0
9060,0.195312,0.70752,0.616699,0
9080,0.238281,0.525391,0.65332,0
9100,0.304688,0.535156,0.693359,0
9120,0.301758,0.554688,0.49707,0
9140,0.345215,0.516602,0.539551,0
9160,0.325195,0.490723,0.688965,0
9180,0.210938,0.691406,0.657227,0
9200,0.23584,0.743652,0.59082,0
9220,0.292969,0.714355,0.498047,0
9240,0.302246,0.650879,0.469238,0
9260,0.286621,0.693848,0.489258,0
9280,0.305664,0.673828,0.505371,0
9300,0.279297,0.760742,0.524902,0
9320,0.225586,0.912598,0.486816,0
9340,0.302734,0.750977,0.467285,0
9360,0.376953,0.677734,0.576172,0
9380,0.241211,0.784668,0.419434,0
9400,0.233398,0.770508,0.374512,0
9420,0.197754,0.804688,0.494141,0
9440,0.159668,0.936523,0.507812,0
9460,0.222168,0.855957,0.578613,0
9480,0.282715,0.737305,0.472168,0
9500,0.247559,0.764648,0.419434,0
9520,0.230957,0.786133,0.437988,0
9540,0.218262,0.819824,0.463379,0
9560,0.259766,0.842285,0.498047,0
9580,0.290527,0.83252,0.495117,0
9600,0.28125,0.82666,0.466309,0
9620,0.270508,0.782227,0.430176,0
9640,0.289062,0.739746,0.397461,0
9660,0.312988,0.729004,0.445312,0
9680,0.312012,0.767578,0.474609,0
9700,0.290039,0.776367,0.455078,0
9720,0.28125,0.739258,0.399414,0
9740,0.345215,0.705078,0.449219,0
9760,0.282715,0.77002,0.465332,0
9780,0.226074,0.833496,0.475586,0
9800,0.245117,0.818848,0.464844,0
9820,0.275391,0.807129,0.460449,0
9840,0.251953,0.783691,0.430176,0
9860,0.271484,0.809082,0.463379,0
9880,0.264648,0.839844,0.477051,0
9900,0.228516,0.849609,0.357422,0
9920,0.279297,0.745117,0.375488,0
9940,0.304688,0.707031,0.383301,0
9960,0.290039,0.742676,0.371094,0
9980,0.27002,0.758789,0.407715,0
10000,0.265137,0.783203,0.418457,0
10020,0.279785,0.829102,0.479492,0
10040,0.243652,0.819336,0.43457,0
10060,0.293457,0.817383,0.380371,0
10080,0.304688,0.785645,0.394043,0
10100,0.258789,0.727539,0.404297,0
10120,0.294922,0.809082,0.433594,0
10140,0.343262,0.842285,0.50293,0
10160,0.304199,0.842285,0.450684,0
10180,0.350586,0.780273,0.467773,0
10200,0.331055,0.746094,0.449219,0
10220,0.336426,0.756836,0.416992,0
10240,0.351074,0.719727,0.398926,0
10260,0.36084,0.736816,0.445312,0
10280,0.27832,0.790527,0.383301,0
10300,0.25293,0.805664,0.398438,0
10320,0.315918,0.783691,0.369141,0
10340,0.359375,0.847168,0.36377,0
10360,0.322266,0.838379,0.343262,0
10380,0.359863,0.796387,0.365723,0
10380,0.352051,0.764648,0.355469,0
10400,0.37207,0.719727,0.36377,0
10420,0.382324,0.747559,0.408691,0
10440,0.376465,0.812012,0.410156,0
10460,0.317871,0.83252,0.344727,0
10460,0.338379,0.814941,0.388672,0
10480,0.37793,0.79834,0.425293,0
10500,0.362793,0.783203,0.439941,0
10500,0.352539,0.805176,0.379883,0
10520,0.321777,0.797363,0.310059,0
10540,0.30127,0.785156,0.300781,0
10560,0.330078,0.776855,0.361328,0
10560,0.34668,0.784668,0.416016,0
10580,0.34668,0.848145,0.386719,0
10600,0.300781,0.849609,0.374512,0
10620,0.288574,0.78418,0.367188,0
10620,0.335938,0.736816,0.380859,0
10640,0.339844,0.76709,0.391602,0
10660,0.359863,0.745605,0.391602,0
10680,0.358398,0.734863,0.365234,0
10680,0.361328,0.763184,0.424805,0
10700,0.382812,0.746582,0.472168,0
10720,0.378418,0.731934,0.458008,0
10730,0.374023,0.75293,0.431152,0
10740,0.354492,0.75,0.405762,0
10760,0.329102,0.759766,0.42041,0
10780,0.327148,0.713867,0.476074,0
10780,0.385254,0.720215,0.473633,0
10800,0.375488,0.756348,0.470215,0
10820,0.351074,0.769531,0.387695,0
10840,0.341309,0.760254,0.400391,0
10860,0.379883,0.722168,0.446777,0
10860,0.395996,0.718262,0.470215,0
10880,0.390625,0.753906,0.437988,0
10900,0.358398,0.73584,0.386719,0
10920,0.36084,0.75,0.420898,0
10920,0.358398,0.739746,0.421387,0
10940,0.0825195,0.568359,0.012207,0
10980,0.492188,0.699707,0.560547,0
11020,0.369141,0.739258,0.412598,0
11080,0.409668,0.783691,0.40918,0
11140,0.38916,0.730469,0.428223,0
11180,0.380371,0.702637,0.401855,0
11240,0.422363,0.727051,0.461426,0
11280,0.396973,0.759277,0.458008,0
11300,0.378418,0.791992,0.398438,0
11320,0.397949,0.768066,0.413086,0
11340,0.418457,0.774414,0.376465,0
11360,0.380859,0.818848,0.369629,0
11380,0.337891,0.865234,0.402832,0
11400,0.457031,0.757812,0.438477,0
11420,0.479492,0.678223,0.399902,0
11440,0.444824,0.679688,0.413086,0
11460,0.372559,0.708496,0.37793,0
11470,0.478027,0.646484,0.470215,0
11490,0.571777,0.605957,0.472656,0
11510,0.612305,0.58252,0.463867,0
11530,0.475586,0.658691,0.471191,0
11550,0.459473,0.641602,0.46582,0
11570,0.46582,0.681641,0.541992,0
11590,0.45752,0.666016,0.498535,0
11610,0.507324,0.618652,0.405762,0
11630,0.580566,0.577148,0.416992,0
11650,0.480469,0.673828,0.477539,0
11670,0.489746,0.629395,0.349121,0
11690,0.550293,0.580078,0.522461,0
11710,0.536621,0.577148,0.490723,0
11730,0.456055,0.60791,0.416504,0
11750,0.416504,0.712402,0.30957,0
11770,0.43457,0.655762,0.390625,0
11790,0.477539,0.599121,0.524414,0
11810,0.456055,0.683594,0.54541,0
11830,0.47998,0.68457,0.478516,0
11850,0.526855,0.623535,0.428711,0
11870,0.525879,0.578613,0.412598,0
11890,0.496094,0.603516,0.324219,0
11910,0.52002,0.607422,0.369629,0
11930,0.479492,0.622559,0.436035,0
11950,0.503906,0.636719,0.503418,0
11970,0.422852,0.729004,0.478027,0
11990,0.42334,0.691895,0.375488,0
12010,0.431641,0.719727,0.352539,0
12030,0.466797,0.77832,0.368164,0
12050,0.494141,0.697266,0.412109,0
12070,0.512695,0.747559,0.452637,0
12090,0.554688,0.750977,0.408203,0
12110,0.598633,0.697266,0.347168,0
12130,0.561035,0.658691,0.286133,0
12150,0.500977,0.68457,0.387207,0
12170,0.481445,0.768066,0.45459,0
12190,0.409668,0.810547,0.405273,0
12210,0.437012,0.74707,0.308594,0
12230,0.454102,0.640137,0.275391,0
12250,0.495605,0.646484,0.369141,0
12270,0.455566,0.705566,0.324219,0
12290,0.469238,0.6875,0.315918,0
12310,0.549805,0.692871,0.308105,0
12330,0.481445,0.757812,0.304199,0
12350,0.555176,0.719727,0.320312,0
12370,0.441406,0.770996,0.382324,0
12390,0.46582,0.791504,0.28125,0
12410,0.618652,0.775391,0.376465,0
12430,0.501465,0.694336,0.385742,0
12450,0.445801,0.696777,0.489746,0
12470,0.720215,0.669434,0.483398,0
12490,0.670898,0.600586,0.387207,0
12510,0.766113,0.585449,0.330566,0
12530,0.43457,0.657227,0.436035,0
12550,0.597656,0.644043,0.472168,0
12570,0.553711,0.652344,0.386719,0
12590,0.533691,0.567383,0.391113,0
12610,0.530273,0.663086,0.348633,0
12630,0.556152,0.626953,0.29834,0
12650,0.560059,0.535645,0.316406,0
12670,0.544434,0.671387,0.358887,0
12690,0.630859,0.686035,0.51123,0
12710,0.552734,0.545898,0.443359,0
12730,0.550781,0.628906,0.438477,0
12750,0.600098,0.539062,0.489746,0
12770,0.465332,0.616699,0.268555,0
12790,0.572266,0.621094,0.367188,0
12810,0.537109,0.657715,0.401367,0
12830,0.500977,0.662109,0.370605,0
12850,0.556641,0.665527,0.392578,0
12870,0.525879,0.725098,0.345215,0
12890,0.481934,0.71875,0.351074,0
12910,0.446777,0.664551,0.312012,0
12930,0.523926,0.627441,0.405762,0
12950,0.558105,0.656738,0.362793,0
12970,0.577148,0.637207,0.359863,0
12990,0.483887,0.729492,0.324707,0
13010,0.54248,0.690918,0.401855,0
13030,0.54834,0.661621,0.42334,0
13050,0.528809,0.683105,0.411621,0
13070,0.54248,0.674805,0.389648,0
13090,0.537598,0.638672,0.355957,0
13110,0.505371,0.662598,0.355957,0
13130,0.538574,0.632812,0.412109,0
13150,0.587402,0.616699,0.484375,0
13170,0.542969,0.690918,0.444824,0
13190,0.532227,0.717773,0.391602,0
13210,0.522461,0.699707,0.374023,0
13230,0.582031,0.606934,0.383789,0
13250,0.535645,0.64502,0.296875,0
13270,0.57959,0.719727,0.306152,0
13290,0.577637,0.751953,0.310059,0
13310,0.641602,0.714355,0.37207,0
13330,0.566406,0.638184,0.535645,0
13350,0.27832,0.658203,0.550293,0
13370,0.348633,0.64502,0.235352,0
13390,0.356934,0.527832,0.296875,0
13410,0.0942383,0.62207,0.336914,0
13430,0.640625,0.776855,0.557617,0
13450,0.630371,0.815918,0.500488,0
13470,0.504395,0.727539,0.286621,0
13490,0.563965,0.734863,0.255859,0
13510,0.834961,0.79541,0.304688,0
13530,0.611328,0.919922,0.259766,0
13550,0.614258,1.0752,0.320801,0
13570,0.65918,0.996094,0.46875,0
13590,0.510742,0.853516,0.498047,0
13610,0.485352,0.775391,0.377441,0
13630,0.397949,0.683105,0.293457,0
13650,0.462402,0.455078,0.250488,0
13670,0.342285,0.140137,0.426758,0
13690,0.172363,-0.216797,0.5,0
13710,0.164062,-0.493164,0.585938,0
13730,0.179199,-0.611816,0.326172,0
13750,0.277832,-0.657227,0.0600586,0
13770,0.146973,-1.39209,1.17139,0
13790,-0.141602,-1.43652,0.169434,0
13810,0.39209,-0.914551,0.123047,0
13830,0.195312,-0.94873,0.59082,0
13850,0.104492,-0.78418,0.496582,0
13870,0.172363,-0.59668,0.817383,0
13890,0.365234,-0.279785,0.931641,0
13910,0.481934,-0.203125,0.787598,0
13930,0.644531,-0.217285,0.623535,0
13950,0.729004,-0.313477,0.739258,0
13970,0.494141,-0.580078,0.586426,0
13990,0.319336,-0.695312,0.508301,0
14010,0.244629,-0.719238,0.583496,0
14030,0.231445,-0.897949,0.626953,0
14050,0.487793,-1.01367,0.469727,0
14070,0.534668,-0.57959,0.239258,0
14090,0.394531,-0.19873,0.396484,0
14110,0.572266,-0.0839844,0.533691,0
14120,0.712402,-0.171875,0.774902,0
14140,0.762207,0.119629,0.572266,0
14160,0.566895,0.344727,0.503418,0
14180,0.880859,1.11719,1.26758,0
14200,0.863281,1.24902,0.414551,0
14220,0.0727539,0.432617,0.555176,0
14240,0.207031,0.39209,0.8125,0
14260,0.512207,0.46875,0.674316,0
14280,0.61084,0.307129,0.463379,0
14300,0.603027,0.28125,0.458496,0
14320,0.657227,0.290039,0.629395,0
14340,0.695801,0.348145,0.578125,0
14360,0.75,0.400879,0.496094,0
14380,0.691895,0.419922,0.553711,0
14400,0.601562,0.418945,0.645996,0
14420,0.63623,0.35791,0.572266,0
14440,0.681152,0.278809,0.521973,0
14460,0.734375,0.218262,0.527344,0
14480,0.67627,0.116211,0.568359,0
14500,0.595215,-0.000488281,0.549805,0
14520,0.629883,0.0517578,0.567871,0
14540,0.737793,0.258789,0.605469,0
14560,0.733398,0.357422,0.588867,0
14580,0.661621,0.297363,0.517578,0
14600,0.600586,0.219238,0.618164,0
14620,0.603516,0.189453,0.597168,0
14640,0.591309,0.194336,0.557617,0
14660,0.65918,0.196289,0.621582,0
14680,0.725098,0.199219,0.57666,0
14700,0.720215,0.225098,0.540039,0
14720,0.662598,0.231445,0.555176,0
14740,0.635254,0.187988,0.553711,0
14760,0.6875,0.197266,0.61377,0
14780,0.748047,0.230957,0.560547,0
14800,0.691406,0.225586,0.512207,0
14820,0.633789,0.185059,0.583984,0
14840,0.685059,0.175781,0.572266,0
14860,0.739258,0.187012,0.538574,0
14880,0.757812,0.21582,0.569824,0
14900,0.722656,0.219238,0.583984,0
14920,0.66748,0.210449,0.55957,0
14940,0.651367,0.217773,0.54541,0
14960,0.666504,0.208496,0.542969,0
14980,0.717285,0.181152,0.578613,0
15000,0.725586,0.205078,0.577148,0
15020,0.665527,0.201172,0.549805,0
15040,0.672852,0.165527,0.57959,0
15060,0.705078,0.188965,0.563477,0
15080,0.729004,0.223633,0.544922,0
15100,0.69873,0.210449,0.546875,0
15120,0.671875,0.179199,0.589355,0
15140,0.749512,0.21582,0.567383,0
15160,0.749512,0.21875,0.502441,0
15180,0.692383,0.167969,0.581055,0
15200,0.686523,0.13916,0.577148,0
15220,0.655762,0.135254,0.547363,0
15240,0.637207,0.163086,0.584473,0
15260,0.642578,0.183105,0.591309,0
15280,0.651367,0.175293,0.580566,0
15300,0.602539,0.132324,0.596191,0
15320,0.629395,0.187988,0.62207,0
15340,0.690918,0.154785,0.550293,0
15360,0.665527,0.204102,0.570312,0
15380,0.682617,0.106445,0.571289,0
15400,0.705078,0.103516,0.539551,0
15420,0.705078,0.134277,0.594727,0
15440,0.758789,0.0898438,0.520996,0
15460,0.742676,0.103516,0.519043,0
15480,0.810547,0.314453,0.462402,0
15500,0.897949,0.325684,0.397949,0
15520,0.722168,0.287109,0.349121,0
15540,0.650879,0.263184,0.355469,0
15560,0.744141,0.378418,0.415527,0
15580,0.821289,0.480957,0.361328,0
15600,0.759277,0.402344,0.296387,0
15620,0.714844,0.387695,0.309082,0
15640,0.793457,0.395996,0.244141,0
15660,0.811035,0.462402,0.232422,0
15680,0.76123,0.452637,0.254395,0
15700,0.76416,0.484375,0.154785,0
15720,0.780762,0.500488,0.198242,0
15740,0.769531,0.570801,0.0737305,0
15760,0.802246,0.625488,0.116211,0
15780,0.750488,0.589844,0.0820312,0
15800,0.759766,0.553223,0.0878906,0
15820,0.844727,0.537598,0.109375,0
15840,0.895508,0.548828,0.169922,0
15860,0.858398,0.474609,0.17627,0
15880,0.803223,0.402344,0.155273,0
15900,0.758301,0.45166,0.160156,0
15920,0.791016,0.48877,0.197754,0
15940,0.829102,0.492188,0.166016,0
15960,0.834473,0.499512,0.165039,0
15980,0.815918,0.455078,0.164062,0
16000,0.766602,0.443848,0.20166,0
16020,0.744141,0.427734,0.20459,0
16040,0.827637,0.461914,0.177246,0
16060,0.864258,0.554199,0.162598,0
16080,0.849609,0.513672,0.136719,0
16100,0.821289,0.418945,0.156738,0
16120,0.725098,0.474121,0.188965,0
16140,0.671875,0.416992,0.183594,0
16160,0.775879,0.474609,0.211426,0
16180,0.827148,0.494141,0.208984,0
16200,0.774414,0.498535,0.0649414,0
16220,0.804199,0.458008,0.0952148,0
16240,0.885742,0.431152,0.0786133,0
16260,0.881836,0.481445,0.156738,0
16280,0.845703,0.48877,0.211914,0
16300,0.830566,0.436035,0.177734,0
16320,0.781738,0.401855,0.112305,0
16340,0.808105,0.36084,0.114746,0
16360,0.916992,0.354492,0.160156,0
16380,0.903809,0.370117,0.240234,0
16400,0.820801,0.37207,0.212402,0
16420,0.721191,0.471191,0.121582,0
16440,0.651367,0.544922,0.0249023,0
16460,0.650879,0.455566,-0.046875,0
16480,0.957031,0.374023,0.0693359,0
16500,1.16357,0.240234,0.0581055,0
16520,1.12598,0.28125,0.0356445,0
16540,0.878418,0.111816,0.391602,0
16560,0.908691,0.0229492,0.362793,0
16580,1.03955,-0.09375,-0.0981445,0
16600,1.01221,0.445312,0.126953,0
16620,0.874512,0.362793,0.123047,0
16640,0.6875,0.396973,0.35498,0
16660,0.577148,0.385254,0.378418,0
16680,0.767578,0.367676,0.508301,0
16700,1.08691,0.402344,0.183105,0
16720,1.01855,0.814941,0.422852,0
16740,0.811035,0.547363,0.205566,0
16750,0.636719,0.526367,-0.0644531,0
16770,0.516113,0.387207,-0.141602,0
16790,0.499023,0.380859,-0.0546875,0
16810,0.633789,0.460938,0.0561523,0
16830,0.750977,0.42334,0.0449219,0
16850,0.720215,0.387695,-0.130371,0
16870,0.635254,0.23877,-0.0380859,0
16890,0.687988,0.113281,-0.141602,0
16910,0.878418,0.0927734,-0.188965,0
16930,0.986328,-0.027832,-0.246582,0
16950,0.852051,-0.170898,-0.312012,0
16970,0.864258,-0.25,-0.289551,0
16990,0.92627,-0.290527,-0.32373,0
17010,1.06641,-0.486816,-0.316895,0
17030,1.24414,-0.378418,-0.430176,0
17050,1.44336,-0.186523,-0.42627,0
17070,1.45215,-0.265625,-0.45166,0
17090,1.14111,-0.229004,-0.264648,0
17110,1.10596,-0.161621,-0.271973,0
17130,1.24512,-0.121582,-0.342773,0
17150,1.16553,-0.158203,-0.364258,0
17170,0.972168,-0.0698242,-0.239258,0
17190,0.813477,0.0205078,-0.0581055,0
17210,0.952637,-0.213379,0.0898438,0
17230,1.15186,-0.210449,-0.151367,0
17250,0.812012,-0.245605,-0.0205078,0
17270,0.963379,0.151855,-0.139648,0
17290,0.984863,0.34375,0.260254,0
17310,0.941895,0.0820312,0.33252,0
17330,0.966797,-0.607422,-1.07373,0
17350,0.963867,0.0791016,-0.147461,0
17370,0.970703,0.0844727,0.507812,0
17390,0.913574,-0.108887,-0.427246,0
17410,0.950195,0.18457,0.0991211,0
17430,0.990723,0.00830078,-0.0473633,0
17450,0.975098,-0.0556641,0.0527344,0
17470,0.953125,0.0239258,-0.0410156,0
17490,0.952637,0.074707,-0.112305,0
17510,0.972168,-0.0400391,-0.0966797,0
17530,0.972656,-0.0625,-0.0722656,0
17550,0.964355,0.046875,-0.12793,0
17570,0.96875,0.0405273,-0.10498,0
17590,0.964844,-0.00634766,-0.0322266,0
17610,0.955566,0.00195312,-0.106445,0
17630,0.943848,0.0712891,-0.0810547,0
17650,0.970703,0.0102539,-0.0234375,0
17670,0.971191,-0.0307617,-0.100586,0
17690,0.970215,0.0400391,-0.125488,0
17710,0.952148,0.03125,-0.059082,0
17730,0.970703,-0.0200195,-0.0996094,0
17750,0.969238,-0.0283203,-0.101074,0
17770,0.965332,0.0214844,-0.0683594,0
17790,0.964355,0.0429688,-0.0883789,0
17810,0.959473,0.00878906,-0.0844727,0
17830,0.967285,0.0166016,-0.0849609,0
17850,0.963867,0.0175781,-0.0639648,0
17870,0.966797,0.00683594,-0.0825195,0
17890,0.965332,0.00537109,-0.0947266,0
17910,0.96875,0.0258789,-0.0742188,0
17930,0.96582,0.0107422,-0.090332,0
17950,0.965332,0.00488281,-0.0952148,0
17970,0.966309,0.0170898,-0.0751953,0
17990,0.966797,0.019043,-0.0839844,0
18010,0.967285,0.00878906,-0.0786133,0
18030,0.967285,0.0151367,-0.0791016,0
18050,0.966309,0.0166016,-0.0854492,0
18070,0.967773,0.0126953,-0.0830078,0
18090,0.964844,0.0136719,-0.0844727,0
18110,0.965332,0.0175781,-0.0864258,0
18130,0.961426,0.0117188,-0.0849609,0
18150,0.967773,0.0126953,-0.0888672,0
18170,0.966309,0.0180664,-0.0834961,0
18190,0.96875,0.0151367,-0.0825195,0
18210,0.966797,0.0117188,-0.09375,0
18230,0.966309,0.0141602,-0.0776367,0
18250,0.966797,0.0175781,-0.0913086,0
18270,0.96582,0.0117188,-0.0820312,0
18290,0.970215,0.0141602,-0.0898438,0
18310,0.965332,0.0185547,-0.0786133,0
18330,0.972656,0.00927734,-0.0878906,0
18350,0.964844,0.0117188,-0.0820312,0
18370,0.969727,0.0136719,-0.0869141,0
18390,0.962402,0.0161133,-0.0874023,0
18410,0.966309,0.015625,-0.0805664,0
18430,0.96875,0.0195312,-0.0795898,0
18450,0.961426,0.0131836,-0.0864258,0
18470,0.96582,0.0107422,-0.0922852,0
18490,0.969238,0.0229492,-0.0893555,0
18510,0.96582,0.0141602,-0.0888672,0
18530,0.975098,0.0141602,-0.0839844,0
18550,0.961426,0.00976562,-0.0966797,0
18570,0.965332,0.0141602,-0.078125,0
18590,0.968262,0.019043,-0.0864258,0
18610,0.96875,0.012207,-0.0834961,0
18630,0.972656,0.00585938,-0.0883789,0
18650,0.962402,0.015625,-0.0805664,0
18670,0.971191,0.0175781,-0.0922852,0
18690,0.967773,0.0151367,-0.0776367,0
18710,0.966797,0.0078125,-0.0932617,0
18730,0.969727,0.0166016,-0.0834961,0
18750,0.969727,0.0136719,-0.0952148,0
18770,0.96875,0.0112305,-0.0820312,0
18790,0.965332,0.0180664,-0.0874023,0
18810,0.964355,0.0161133,-0.0888672,0
18830,0.969727,0.0102539,-0.0791016,0
18850,0.965332,0.0126953,-0.0859375,0
18870,0.968262,0.0200195,-0.0888672,0
18890,0.96582,0.0136719,-0.0795898,0
18910,0.965332,0.00878906,-0.0869141,0
18930,0.969727,0.0112305,-0.0825195,0
18950,0.967285,0.0205078,-0.090332,0
18970,0.96875,0.0102539,-0.0864258,0
18990,0.96582,0.0141602,-0.0805664,0
19010,0.970703,0.0141602,-0.0898438,0
19030,0.965332,0.0141602,-0.0834961,0
19050,0.964355,0.0107422,-0.0786133,0
19070,0.967773,0.0136719,-0.0854492,0
19090,0.964355,0.0180664,-0.0888672,0
19110,0.96875,0.00878906,-0.090332,0
19130,0.96875,0.0146484,-0.0849609,0
19150,0.970215,0.0214844,-0.0834961,0
19170,0.966797,0.015625,-0.0859375,0
19190,0.967285,0.0151367,-0.078125,0
19210,0.968262,0.015625,-0.0830078,0
19230,0.965332,0.0170898,-0.0854492,0
19250,0.965332,0.0126953,-0.0849609,0
19270,0.967773,0.0180664,-0.0854492,0
19290,0.966309,0.0170898,-0.0849609,0
19310,0.967773,0.0136719,-0.0878906,0
19330,0.969727,0.0146484,-0.0849609,0
19350,0.969238,0.0195312,-0.0844727,0
19370,0.961914,0.0151367,-0.0874023,0
19390,0.96582,0.0141602,-0.0820312,0
19400,0.965332,0.00683594,-0.144043,0
19420,0.965332,-0.00390625,0.0258789,0
19440,0.958008,0.217773,0,0
19460,0.976074,-0.231934,0.128906,0
19480,1.1123,0.148926,-0.589844,0
19500,1.17822,0.190918,-1.1543,0
19520,1.6084,-0.0668945,-1.33154,0
19540,1.81104,-0.327637,-0.866699,0
19560,1.90039,-0.606445,-0.686035,0
19580,1.49805,-0.494629,-0.679688,0
19600,1.11328,-0.323242,-0.88623,0
19620,1.05566,-0.059082,-0.800293,0
19640,0.882324,-0.0917969,-0.369629,0
19660,0.859375,-0.0371094,0.0166016,0
19680,0.878418,-0.012207,-0.0585938,0
19700,0.578613,0.120117,-0.154785,0
19720,0.564453,0.0864258,0.0170898,0
19740,0.563965,0.0507812,0.316895,0
19760,0.248047,-0.0141602,0.619141,0
19780,0.20459,0.0424805,0.494141,0
19800,0.0395508,0.369629,0.509277,0
19820,0.206055,0.395508,0.718262,0
19840,0.208984,0.342773,0.830078,0
19860,0.015625,0.32666,0.927734,0
19880,-0.18457,0.394531,0.694824,0
19900,-0.263184,0.36084,0.632324,0
19920,-0.380371,0.230957,0.698242,0
19920,-0.400879,0.274414,0.850586,0
19940,-0.367188,0.333496,0.79248,0
19960,-0.341309,0.45752,0.594238,0
19970,-0.441895,0.419922,0.602539,0
19980,-0.453613,0.250977,0.751953,0
20020,0.473145,0.648926,2.08154,0
20060,0.941895,0.323242,-0.149414,0
20080,0.212891,-0.169434,-0.630859,0
20100,-0.816895,0.988281,1.54346,0
20120,-0.437012,0.391602,0.96875,0
20140,0.0249023,-0.269043,0.978516,0
20160,0.186035,-0.168457,1.70068,0
20180,-0.00390625,-0.189453,1.36914,0
20200,-0.387207,0.15332,0.916016,0
20220,0.0820312,-0.0810547,0.936523,0
20240,0.70459,-0.00830078,0.258789,0
20260,0.0444336,0.872559,0.62207,0
20280,-0.202637,-0.150879,2.48926,0
20300,0.0297852,-0.313477,1.04053,0
20320,-0.472168,0.510742,0.804688,0
20340,-0.0678711,-0.123047,0.807129,0
20360,-0.050293,0.15918,1.07861,0
20380,0.0717773,0.139648,0.849121,0
20400,0.20459,0.134277,0.986328,0
20420,-1.02441,0.811035,0.150391,0
20440,-0.347656,0.0820312,1.30029,0
20460,-1.13867,-0.325684,0.791504,0
20480,-0.209473,-1.33545,-0.214844,0
20500,-2.24707,-1.43652,-0.225586,0
20520,-0.967773,0.145508,0.871582,0
20540,-0.993652,-0.0703125,0.520996,0
20560,-0.545898,-0.429688,0.928711,0
20580,-0.249512,-0.165527,0.879883,0
20600,-0.510254,-0.28125,0.879883,0
20620,-0.567383,-0.0541992,0.605957,0
20640,-0.657227,-0.127441,0.636719,0
20660,-0.388672,-0.192383,0.675781,0
20680,-0.403809,-0.0307617,0.79541,0
20700,-0.249023,-0.0966797,0.715332,0
20720,-0.0605469,-0.203613,0.914062,0
20740,-0.38916,-0.00927734,0.945801,0
20760,-0.404297,-0.152344,0.591309,0
20780,-0.397949,-0.0268555,0.847168,0
20800,-0.657715,-0.13623,0.722168,0
20820,-0.445312,0.440918,0.916016,0
20840,-0.180176,0.0986328,1.17871,0
20860,-0.38916,-0.407227,0.911621,0
20880,-0.16748,-0.567871,0.950684,0
20900,0.189941,-0.697266,0.98584,0
20920,-0.538574,-0.105469,0.703613,0
20940,-0.286621,0.284668,0.965332,0
20960,-0.498047,0.027832,0.780273,0
20980,-0.505859,-0.178711,0.743164,0
21000,-0.506836,-0.246582,0.722656,0
21020,-0.623535,-0.265625,0.518066,0
21040,-0.666992,0.0522461,0.610352,0
21060,-0.902344,0.0424805,0.466309,0
21080,1.17725,0.414551,1.82568,0
21100,-0.358398,-0.387207,1,0
21120,-0.910156,-0.268555,0.900879,0
21140,-1.27734,-0.00732422,0.707031,0
21160,-1.19971,-0.114258,0.729004,0
21180,-1.09424,-0.572754,0.572754,0
21200,-0.663574,-0.386719,0.479004,0
21220,-0.291504,-0.812988,0.631836,0
21240,-0.0317383,-0.538086,1.13965,0
21260,-0.489746,-0.153809,0.382812,0
21280,0.940918,-0.280273,0.886719,0
21300,-1.10596,-0.481445,0.585938,0
21320,-0.682129,0.212402,0.24707,0
21340,0.298828,0.00537109,0.0361328,0
21360,0.125977,-0.79834,0.834473,0
21380,0.236816,-0.730469,1.00098,0
21400,1.58691,-0.629883,1.44922,0
21420,-1.85693,0.0175781,1.31641,0
21440,-8.61719,-2.0083,-2.82178,0
21460,-0.046875,-2.3291,0.285156,0
21480,-0.354492,-0.20752,0.157227,0
21500,-1.12939,-0.487305,0.851074,0
21520,-0.616211,-0.708008,0.626953,0
21540,-0.0527344,-0.47168,0.580566,0
21560,-0.876953,-0.508789,0.632812,0
21580,-0.963379,-0.452148,0.637207,0
21600,-0.550293,-0.433594,0.708984,0
21620,-0.57959,-0.414551,0.730957,0
21640,-0.580078,-0.304688,0.725098,0
21660,-0.300781,-0.308105,0.646484,0
21680,-0.32373,-0.366699,0.638184,0
21700,-0.333496,-0.483887,0.666992,0
21720,-0.433105,-0.588379,0.672363,0
21740,-0.369629,-0.455566,0.543457,0
21760,-0.223145,-0.434082,0.725098,0
21780,-0.236328,-0.309082,0.585938,0
21800,-0.433594,-0.396973,0.57373,0
21820,-0.384766,-0.478027,0.693359,0
21840,-0.0131836,-0.355957,0.770996,0
21860,0.391602,-0.00390625,0.65625,0
21880,0.189941,-0.289062,0.825684,0
21900,-0.0166016,-0.619141,0.953125,0
21920,-0.102051,-0.523926,0.908203,0
21940,-0.134766,-0.313477,0.894531,0
21960,-0.223633,-0.287109,0.959473,0
21980,-0.183594,-0.523926,1.10693,0
22000,-0.28125,-0.20166,1.03467,0
22020,-0.174316,-0.35791,1.10498,0
22040,-0.195801,-0.0390625,0.90625,0
22050,-0.375,0.225586,0.867676,0
22070,-0.334473,0.0283203,0.907715,0
22090,-0.114258,0.311035,0.836914,0
22110,-0.000488281,0.543945,0.811035,0
22130,-0.0253906,0.620605,0.817383,0
22150,-0.186523,0.284668,0.889648,0
22170,-0.0512695,0.0703125,0.918945,0
22190,0.0205078,-0.0429688,0.890137,0
22210,0.0644531,-0.0166016,0.958496,0
22230,-0.00585938,0.00195312,0.824707,0
22250,-0.150879,0.192871,0.853027,0
22270,-0.0629883,0.11084,1.04541,0
22290,-0.0727539,0.00195312,1.03271,0
22310,-0.137695,0.108887,1.05762,0
22330,-0.116211,0.0737305,0.969727,0
22350,-0.12207,0.0834961,0.912109,0
22370,-0.059082,0.0473633,0.857422,0
22390,0.050293,0.0898438,0.850098,0
22410,0.108398,0.152344,0.852051,0
22430,0.131836,0.251465,0.859375,0
22450,0.124023,0.288086,0.924316,0
22470,0.163574,0.302246,0.964355,0
22490,0.125977,0.404785,0.985352,0
22510,0.0537109,0.481934,0.893066,0
22530,0.015625,0.345703,0.799805,0
22550,0.0522461,0.17627,0.788086,0
22570,0.0722656,0.12793,0.855469,0
22590,0.0732422,0.185059,0.893555,0
22610,0.0351562,0.270508,0.916016,0
22630,0.0375977,0.330078,0.894531,0
22650,0.0146484,0.283691,0.878906,0
22670,0.0253906,0.244629,0.875,0
22690,0.0454102,0.217285,0.862793,0
22710,0.0302734,0.213867,0.868164,0
22730,0.0649414,0.227539,0.88916,0
22750,0.0820312,0.242188,0.902344,0
22770,0.0541992,0.238281,0.883301,0
22790,0.0141602,0.228027,0.875977,0
22810,0.0249023,0.214355,0.896484,0
22830,0.0493164,0.228027,0.890137,0
22850,0.0541992,0.245117,0.901367,0
22870,0.0200195,0.273438,0.872559,0
22890,0.0385742,0.25,0.881836,0
22910,0.0361328,0.230469,0.882812,0
22930,0.0239258,0.238281,0.878906,0
22950,0.0214844,0.237305,0.883789,0
22970,0.0356445,0.23877,0.881836,0
22990,0.034668,0.241699,0.882812,0
23010,0.0385742,0.23291,0.887207,0
23030,0.00878906,0.237793,0.873535,0
23050,0.0200195,0.228516,0.876953,0
23070,0.0400391,0.225098,0.898438,0
23090,0.0166016,0.230957,0.880371,0
23110,0.0292969,0.225586,0.898438,0
23130,0.074707,0.225586,0.897949,0
23150,0.0859375,0.225586,0.884277,0
23170,0.0810547,0.245117,0.880859,0
23190,0.0737305,0.282227,0.908203,0
23210,0.15625,0.404297,0.942383,0
23230,0.207031,0.580566,0.938965,0
23250,0.104004,0.55127,0.852051,0
23270,0.0517578,0.487305,0.873535,0
23290,-0.00830078,0.510254,0.843262,0
23310,-0.112305,0.549805,0.841797,0
23330,-0.189941,0.5625,0.897461,0
23350,-0.245117,0.492188,0.907227,0
23370,-0.321289,0.394043,0.916992,0
23390,-0.352051,0.246582,0.911621,0
23410,-0.275879,0.0126953,0.993652,0
23430,-0.205566,-0.0991211,1.01514,0
23450,-0.262695,0.0209961,1.00635,0
23470,-0.242188,0.222168,0.88916,0
23490,-0.134277,0.335938,0.837891,0
23510,-0.0844727,0.279297,0.830566,0
23530,-0.0356445,-0.0639648,0.817871,0
23550,0.213379,-0.23877,0.841797,0
23570,0.321289,-0.16748,0.830566,0
23590,0.252441,0.0209961,0.729492,0
23610,0.262695,0.105957,0.603516,0
23630,0.402344,0.213379,0.864258,0
23650,0.407715,0.0942383,0.874023,0
23660,0.169922,0.25,0.730469,0
23680,0.10791,0.276367,0.695801,0
23700,0.110352,0.270508,0.730957,0
23700,0.123535,0.385742,0.895996,0
23720,0.104492,0.488281,0.874512,0
23740,-0.00683594,0.526367,0.78418,0
23760,0.00585938,0.458984,0.804688,0
23760,0.00537109,0.323242,0.855957,0
23780,0.00830078,0.304199,0.866211,0
23800,0.0214844,0.331543,0.835449,0
23810,0.0195312,0.34668,0.814453,0
23820,0.0151367,0.341309,0.837891,0
23840,0.034668,0.34082,0.845215,0
23880,0.0166016,0.331543,0.853027,0
23920,-0.00537109,0.339355,0.856445,0
23970,0.00488281,0.369141,0.85791,0
23990,0.0117188,0.373535,0.846191,0
24010,0.0141602,0.364258,0.838867,0
24030,0.0078125,0.345703,0.853516,0
24050,0.0229492,0.349609,0.863281,0
24070,-0.0117188,0.342285,0.854004,0
24090,0.00195312,0.365234,0.85791,0
24110,0.0244141,0.350098,0.835449,0
24130,0.0175781,0.344727,0.841797,0
24140,0.00585938,0.341309,0.837891,0
24140,0.012207,0.33252,0.845215,0
24160,0.0214844,0.342285,0.858887,0
24200,-0.0112305,0.32666,0.838379,0
24220,-0.03125,0.353516,0.788086,0
24240,0.027832,0.32959,0.918457,0
24260,0.0786133,0.283203,1.03369,0
24280,-0.0112305,0.280273,1.02197,0
24300,-0.0976562,0.413086,0.632812,0
24320,0.141602,0.358887,0.894531,0
24340,-0.128418,0.308594,0.853027,0
24360,0.119629,0.318848,1.0708,0
24380,0.0854492,0.463379,0.45459,0
24400,-0.216309,0.246582,0.901855,0
24420,-0.228516,0.196289,1.23242,0
24440,-0.0830078,0.270508,1.21631,0
24460,0.0512695,0.305176,1.1499,0
24480,0.0473633,0.305176,1.18115,0
24500,-0.181152,0.233887,1.26465,0
24520,-0.552734,0.169922,1.2085,0
24540,-0.671875,0.200684,0.858887,0
24560,0.0307617,0.42334,0.433105,0
24580,0.861816,0.488281,0.789551,0
24600,-0.289062,0.169922,1.24658,0
24620,-0.460938,0.368652,0.452637,0
24640,0.825684,0.413086,1.15771,0
24660,-0.890625,0.214844,0.617676,0
24680,0.871582,0.431641,1.18164,0
24700,-0.560547,0.368164,0.366211,0
24720,-0.144043,0.132324,1.21924,0
24740,0.868652,0.523438,1.11182,0
24760,-0.015625,0.5,0.40625,0
24780,-0.753418,0.242676,0.343262,0
24800,-0.725586,0.090332,0.671387,0
24820,-0.456055,0.0717773,0.947754,0
24840,-0.3125,0.074707,1.05078,0
24860,-0.338867,0.0737305,1.02637,0
24880,-0.54541,0.0551758,0.831543,0
24900,-0.737305,0.0947266,0.449219,0
24920,-0.587402,0.265137,0.160156,0
24940,0.0581055,0.521484,0.405273,0
24960,0.717773,0.602051,1.25342,0
24980,0.293457,0.259766,1.50684,0
25000,-0.629883,0.0336914,0.57959,0
25020,-0.340332,0.361816,0.134277,0
25040,0.632324,0.632324,1.06738,0
25060,0.417969,0.32959,1.58057,0
25080,-0.561035,0.0366211,0.706543,0
25100,-0.419922,0.318359,0.111328,0
25120,0.58252,0.635254,0.980957,0
25130,0.482422,0.356934,1.59131,0
25160,-0.516602,0.0327148,0.790527,0
25180,-0.657227,0.194824,0.600098,0
25200,0.0864258,0.292969,0.943848,0
25220,0.0297852,0.337891,0.856934,0
25240,0.00341797,0.330566,0.84668,0
25260,0.0229492,0.333496,0.84375,0
25280,0.0253906,0.336914,0.846191,0
25300,0.00732422,0.339355,0.867188,0
25320,-0.0825195,0.206055,1.17969,0
25340,-0.800781,0.235352,0.478027,0
25360,-0.670898,0.0639648,0.59668,0
25380,-0.640137,0.216309,0.157715,0
25400,0.210938,0.553711,0.524414,0
25420,0.72998,0.539551,1.48828,0
25440,-0.105469,0.117676,1.24805,0
25460,-0.695801,0.118164,0.212402,0
25480,0.142578,0.547852,0.453125,0
25500,0.712891,0.537109,1.47461,0
25520,-0.13623,0.246094,1.0791,0
25540,-0.00292969,0.324707,0.840332,0
25560,0.0146484,0.331055,0.84668,0
25580,0.0239258,0.330078,0.85791,0
25600,0.0151367,0.324219,0.847656,0
25620,0.0209961,0.330078,0.844238,0
25640,0.0161133,0.327637,0.861328,0
25660,0.0200195,0.325684,0.844727,0
25680,0.0205078,0.342285,0.848145,0
25700,0.0146484,0.328125,0.853027,0
25720,0.0214844,0.328613,0.847168,0
25740,0.0175781,0.32959,0.84668,0
25760,0.0200195,0.330566,0.848633,0
25780,0.0136719,0.32959,0.854004,0
25800,0.0219727,0.333984,0.848145,0
25820,0.0195312,0.324219,0.85498,0
25840,0.0185547,0.325195,0.847656,0
25860,0.019043,0.33252,0.853027,0
25880,0.019043,0.333008,0.851074,0
25900,0.0146484,0.324707,0.848633,0
25920,0.0219727,0.328613,0.847656,0
25940,0.0170898,0.326172,0.857422,0
25960,0.012207,0.333984,0.847656,0
25980,0.0205078,0.332031,0.850586,0
26000,0.0195312,0.32666,0.849609,0
26020,0.019043,0.326172,0.855957,0
26040,0.0151367,0.323242,0.856445,0
26060,0.0253906,0.329102,0.847168,0
26080,0.0112305,0.327637,0.852051,0
26100,0.0195312,0.325195,0.849121,0
26120,0.0219727,0.330566,0.850098,0
26140,0.0200195,0.329102,0.850586,0
26160,0.0195312,0.32666,0.851562,0
26180,0.0200195,0.32959,0.854004,0
26200,0.0131836,0.329102,0.851562,0
26220,0.0205078,0.327637,0.86084,0
26240,0.0146484,0.324707,0.85498,0
26260,0.027832,0.332031,0.848633,0
26280,0.0170898,0.32373,0.847168,0
26300,0.0195312,0.320312,0.852051,0
26320,0.0224609,0.326172,0.850586,0
26340,0.0200195,0.32666,0.84668,0
26360,0.0151367,0.326172,0.854004,0
26380,0.0180664,0.328613,0.857422,0
26400,0.0205078,0.325195,0.854004,0
26420,0.0166016,0.322266,0.847656,0
26440,0.0209961,0.32959,0.856445,0
26460,0.015625,0.32666,0.851562,0
26480,0.0239258,0.328613,0.853516,0
26500,0.0209961,0.325684,0.854004,0
26520,0.0112305,0.331055,0.854004,0
26540,0.0166016,0.32666,0.859375,0
26560,0.0209961,0.329102,0.851562,0
26580,0.0214844,0.32959,0.853516,0
26600,0.0214844,0.327637,0.849609,0
26620,0.0205078,0.329102,0.84375,0
26640,0.0234375,0.324707,0.850586,0
26660,0.0131836,0.322266,0.849609,0
26680,0.0166016,0.322754,0.85498,0
26700,0.0249023,0.333496,0.852051,0
26720,0.0166016,0.328125,0.854004,0
26740,0.0200195,0.324707,0.852051,0
26760,0.03125,0.334473,0.849121,0
26780,0.0200195,0.329102,0.850586,0
26800,0.0161133,0.324707,0.848633,0
26820,0.0229492,0.333008,0.844238,0
26840,0.0268555,0.332031,0.849609,0
26860,0.0136719,0.324219,0.845215,0
26880,0.0234375,0.325195,0.851562,0
26900,0.0209961,0.329102,0.853516,0
26920,0.0209961,0.328125,0.853516,0
26940,0.027832,0.331543,0.848633,0
26960,0.0219727,0.323242,0.851074,0
26980,0.0180664,0.333984,0.855957,0
27000,0.0268555,0.32959,0.848633,0
27020,0.0214844,0.333496,0.853516,0
27040,0.0229492,0.331055,0.845703,0
27060,0.0249023,0.330566,0.849609,0
27080,0.0209961,0.335449,0.85498,0
27100,0.0273438,0.331055,0.847656,0
27120,0.0234375,0.32373,0.850098,0
27140,0.0224609,0.333008,0.84668,0
27160,0.0205078,0.33252,0.851562,0
27180,0.0219727,0.32373,0.852539,0
27200,0.0268555,0.330566,0.84375,0
27220,0.0175781,0.331055,0.854492,0
27240,0.0214844,0.324707,0.852539,0
27260,0.0224609,0.333984,0.845215,0
27280,0.0249023,0.329102,0.847168,0
27300,0.0224609,0.32666,0.848633,0
27310,0.0170898,0.329102,0.847168,0
27330,0.0268555,0.327148,0.852051,0
27350,0.0244141,0.330566,0.848633,0
27370,0.0224609,0.327637,0.847656,0
27390,0.0200195,0.331543,0.855957,0
27410,0.0185547,0.33252,0.850586,0
27430,0.0263672,0.323242,0.854004,0
27450,0.0229492,0.333008,0.847656,0
27470,0.0283203,0.333008,0.845703,0
27490,0.0253906,0.329102,0.853027,0
27510,0.0234375,0.335938,0.86377,0
27530,0.034668,0.338867,0.852539,0
27550,0.0444336,0.348633,0.85498,0
27570,0.03125,0.34668,0.842773,0
27590,0.00488281,0.365723,0.831055,0
27610,-0.00488281,0.36084,0.807129,0
27630,0.00537109,0.351074,0.802734,0
27650,0.00439453,0.356445,0.82666,0
27670,0.0234375,0.33252,0.844238,0
27690,-0.00195312,0.33252,0.82373,0
27710,0.0117188,0.32959,0.791504,0
27730,0.0488281,0.31543,0.763184,0
27750,0.0546875,0.305176,0.762695,0
27770,0.00634766,0.297363,0.804199,0
27790,-0.046875,0.279297,0.861328,0
27810,-0.0263672,0.291992,0.841309,0
27830,-0.0131836,0.337402,0.837402,0
27850,-0.059082,0.325195,0.87793,0
27870,-0.116211,0.304688,0.937012,0
27890,-0.13916,0.326172,0.939941,0
27910,-0.0791016,0.347168,0.881836,0
27930,-0.0512695,0.370117,0.829102,0
27950,-0.0532227,0.352051,0.800293,0
27970,-0.119141,0.319336,0.806152,0
27990,-0.143066,0.28125,0.813965,0
28010,-0.123535,0.291992,0.838379,0
28030,-0.0893555,0.291992,0.841797,0
28050,-0.0864258,0.300293,0.860352,0
28070,-0.162109,0.290527,0.880371,0
28090,-0.21582,0.276367,0.899902,0
28110,-0.172363,0.262695,0.874023,0
28130,-0.134766,0.288574,0.859863,0
28150,-0.162109,0.28418,0.860352,0
28170,-0.181641,0.270996,0.875977,0
28190,-0.239746,0.287598,0.891113,0
28210,-0.253906,0.272461,0.894531,0
28230,-0.207031,0.269531,0.878418,0
28250,-0.196777,0.283203,0.870605,0
28270,-0.214355,0.266602,0.878906,0
28290,-0.239258,0.267578,0.884766,0
28310,-0.254883,0.281738,0.889648,0
28330,-0.247559,0.279785,0.875488,0
28350,-0.223633,0.291992,0.870605,0
28370,-0.231445,0.288086,0.863281,0
28390,-0.237305,0.27832,0.859863,0
28410,-0.236328,0.269043,0.861816,0
28430,-0.239258,0.28125,0.85498,0
28450,-0.244629,0.276367,0.861328,0
28470,-0.257812,0.260254,0.865723,0
28490,-0.254883,0.26709,0.847168,0
28510,-0.250977,0.26709,0.847656,0
28530,-0.244629,0.251465,0.858398,0
28550,-0.247559,0.25293,0.858887,0
28570,-0.246094,0.258301,0.844727,0
28590,-0.243652,0.253906,0.845215,0
28610,-0.255859,0.253418,0.830078,0
28630,-0.268066,0.255859,0.820801,0
28650,-0.260254,0.253418,0.819824,0
28670,-0.241211,0.243652,0.84082,0
28690,-0.242188,0.248047,0.859863,0
28710,-0.253906,0.255859,0.866211,0
28730,-0.254883,0.269531,0.875488,0
28750,-0.26709,0.265625,0.87793,0
28770,-0.257812,0.253418,0.868652,0
28790,-0.249512,0.248535,0.87207,0
28810,-0.268066,0.244141,0.868164,0
28830,-0.265137,0.25293,0.853027,0
28850,-0.271973,0.238281,0.844238,0
28870,-0.26416,0.243652,0.847656,0
28890,-0.269531,0.242188,0.842773,0
28910,-0.268066,0.233887,0.846191,0
28930,-0.252441,0.242676,0.867676,0
28950,-0.258789,0.24707,0.867188,0
28970,-0.258301,0.263672,0.855469,0
28990,-0.253418,0.265625,0.84082,0
29010,-0.253418,0.255859,0.835938,0
29030,-0.261719,0.242676,0.863281,0
29050,-0.262207,0.239746,0.89209,0
29070,-0.263184,0.269043,0.888672,0
29090,-0.259277,0.29541,0.887207,0
29110,-0.259277,0.287109,0.88623,0
29130,-0.245117,0.279297,0.861328,0
29150,-0.23584,0.284668,0.835449,0
29170,-0.228027,0.268555,0.836426,0
29180,-0.23291,0.23584,0.851074,0
29200,-0.220215,0.242676,0.861816,0
29220,-0.223633,0.25293,0.853516,0
29240,-0.224121,0.261719,0.841309,0
29260,-0.22168,0.248535,0.837402,0
29280,-0.20166,0.23584,0.847168,0
29300,-0.201172,0.231445,0.858887,0
29320,-0.194336,0.236328,0.877441,0
29340,-0.208984,0.249512,0.870117,0
29360,-0.199707,0.276367,0.855469,0
29380,-0.185547,0.28125,0.864258,0
29400,-0.202148,0.268066,0.859375,0
29420,-0.188965,0.280273,0.856934,0
29440,-0.181641,0.288086,0.849121,0
29460,-0.181152,0.291504,0.843262,0
29480,-0.184082,0.285156,0.819824,0
29500,-0.167969,0.269043,0.814941,0
29520,-0.173828,0.246094,0.826172,0
29540,-0.175781,0.24707,0.831543,0
29560,-0.191406,0.25,0.82666,0
29580,-0.186035,0.265625,0.848145,0
29600,-0.192383,0.26416,0.838867,0
29620,-0.19043,0.291016,0.836914,0
29640,-0.171387,0.285156,0.833496,0
29660,-0.183594,0.269531,0.844238,0
29680,-0.202637,0.256836,0.854492,0
29700,-0.214844,0.245117,0.849609,0
29720,-0.225098,0.242188,0.858398,0
29740,-0.211914,0.263672,0.865234,0
29760,-0.219727,0.312988,0.883789,0
29780,-0.213379,0.344238,0.867676,0
29800,-0.21875,0.34082,0.873535,0
29820,-0.224121,0.31543,0.863281,0
29840,-0.23291,0.299316,0.855957,0
29860,-0.22998,0.290527,0.838867,0
29880,-0.232422,0.28418,0.839844,0
29900,-0.239746,0.271484,0.837402,0
29920,-0.242676,0.272461,0.829102,0
29940,-0.241211,0.272949,0.813965,0
29960,-0.235352,0.267578,0.812012,0
29980,-0.233887,0.251953,0.807129,0
30000,-0.23584,0.239746,0.809082,0
30020,-0.265137,0.239258,0.820312,0
30040,-0.290527,0.239258,0.838379,0
30060,-0.297363,0.246582,0.84375,0
30080,-0.306641,0.257324,0.859863,0
30100,-0.327637,0.289062,0.847656,0
30120,-0.325195,0.304199,0.825195,0
30140,-0.294434,0.265137,0.838867,0
30160,-0.312012,0.224121,0.855957,0
30180,-0.331055,0.25293,0.850098,0
30200,-0.32373,0.271484,0.822266,0
30220,-0.36084,0.306641,0.847656,0
30240,-0.356445,0.279297,0.867188,0
30260,-0.358398,0.269531,0.867676,0
30280,-0.356934,0.265625,0.866699,0
30300,-0.356445,0.265137,0.868652,0
30320,-0.359375,0.26123,0.877441,0
30340,-0.370605,0.263184,0.874023,0
30360,-0.374023,0.250488,0.872559,0
30380,-0.368164,0.25,0.855957,0
30400,-0.34375,0.229492,0.845703,0
30420,-0.334961,0.227051,0.825195,0
30440,-0.323242,0.226074,0.823242,0
30460,-0.336426,0.243164,0.820312,0
30480,-0.330078,0.233398,0.824707,0
30500,-0.32666,0.239258,0.827148,0
30520,-0.32959,0.249023,0.838867,0
30540,-0.334473,0.243652,0.849121,0
30560,-0.328125,0.230957,0.849121,0
30580,-0.310547,0.246094,0.855469,0
30600,-0.315918,0.260254,0.830078,0
30620,-0.314941,0.273438,0.819824,0
30640,-0.302246,0.26123,0.818359,0
30660,-0.309082,0.259277,0.831543,0
30680,-0.306152,0.257812,0.833984,0
30700,-0.305176,0.27832,0.822266,0
30720,-0.302734,0.298828,0.807617,0
30740,-0.29248,0.280273,0.82666,0
30760,-0.294922,0.266602,0.820312,0
30780,-0.296875,0.293945,0.830566,0
30800,-0.291504,0.274902,0.828613,0
30820,-0.294434,0.288574,0.835938,0
30840,-0.298828,0.291016,0.83252,0
30860,-0.303711,0.297852,0.821289,0
30880,-0.291504,0.27832,0.836426,0
30900,-0.29541,0.26416,0.857422,0
30920,-0.299316,0.277832,0.876465,0
30940,-0.303223,0.294922,0.872559,0
30960,-0.29248,0.324707,0.86377,0
30980,-0.285645,0.312012,0.865234,0
31000,-0.275879,0.321289,0.831543,0
31020,-0.248535,0.342773,0.808105,0
31040,-0.257812,0.336426,0.782227,0
31060,-0.259277,0.319824,0.79834,0
31080,-0.285645,0.302246,0.795898,0
31100,-0.263184,0.341309,0.776855,0
31120,-0.249023,0.316406,0.793945,0
31140,-0.249512,0.300293,0.832031,0
31160,-0.254883,0.283691,0.845215,0
31180,-0.266113,0.302246,0.841797,0
31200,-0.264648,0.312988,0.844727,0
31220,-0.263672,0.312988,0.825684,0
31240,-0.25,0.330566,0.811523,0
31260,-0.271973,0.338867,0.84375,0
31280,-0.287598,0.322754,0.873047,0
31300,-0.286133,0.389648,0.873047,0
31320,-0.251953,0.460449,0.849121,0
31340,-0.235352,0.464355,0.831543,0
31360,-0.241211,0.464355,0.839844,0
31380,-0.279297,0.430664,0.832031,0
31400,-0.259766,0.40918,0.885742,0
31420,-0.285156,0.452148,1.02295,0
31440,-0.39502,0.522461,1.15283,0
31460,-0.583984,0.562012,0.931152,0
31480,-0.716309,0.483398,0.894043,0
31500,-0.657227,0.271973,0.849121,0
31520,-0.660645,0.155762,0.741211,0
31540,-0.631348,0.195801,0.700195,0
31560,-0.704102,0.228027,0.675781,0
31580,-0.791016,0.232422,0.65625,0
31600,-0.793945,0.250977,0.652832,0
31620,-0.791504,0.253906,0.618652,0
31640,-0.799805,0.293945,0.629395,0
31660,-0.714844,0.343262,0.584961,0
31680,-0.625,0.304199,0.598633,0
31700,-0.612793,0.272461,0.564453,0
31720,-0.623535,0.277832,0.602051,0
31740,-0.53418,0.280273,0.633301,0
31760,-0.412598,0.23877,0.620605,0
31780,-0.337402,0.265625,0.549805,0
31800,-0.32959,0.330566,0.486816,0
31820,-0.340332,0.458008,0.510254,0
31840,-0.275391,0.510254,0.603027,0
31860,-0.166992,0.529297,0.621094,0
31880,-0.10791,0.614746,0.586914,0
31900,-0.0795898,0.681152,0.525879,0
31920,-0.150879,0.631836,0.560547,0
31940,-0.163086,0.54541,0.601074,0
31960,-0.18457,0.492676,0.616699,0
31980,-0.181152,0.532227,0.630859,0
32000,-0.268555,1.30029,0.635742,0
32020,-0.671387,0.612793,0.859375,0
32040,-0.14502,1.07031,0.43457,0
32060,-0.270996,0.530273,0.600098,0
32080,-0.388672,0.639648,0.58252,0
32100,-0.210449,0.799316,0.621582,0
32120,-0.276855,0.804199,0.529785,0
32140,-0.367188,0.849121,0.474121,0
32160,-0.370605,0.868164,0.441406,0
32180,-0.412598,0.787598,0.456055,0
32200,-0.416504,0.727051,0.44043,0
32220,-0.383301,0.700684,0.459961,0
32240,-0.44043,0.697754,0.485352,0
32260,-0.519531,0.694336,0.478516,0
32280,-0.481934,0.710449,0.518066,0
32300,-0.361816,0.679688,0.538086,0
32320,-0.294434,0.685059,0.532715,0
32340,-0.272949,0.809082,0.604004,0
32360,-0.257324,0.845215,0.619629,0
32380,-0.253418,0.788574,0.595215,0
32400,-0.29248,0.738281,0.556152,0
32420,-0.337402,0.724121,0.512695,0
32440,-0.40625,0.697266,0.486816,0
32460,-0.450195,0.722656,0.449707,0
32480,-0.441406,0.740234,0.489258,0
32500,-0.389648,0.757324,0.499023,0
32520,-0.403809,0.715332,0.44873,0
32540,-0.434082,0.764648,0.410645,0
32560,-0.422363,0.765137,0.371094,0
32580,-0.441895,0.84668,0.353027,0
32590,-0.54834,0.882812,0.351074,0
32610,-0.657715,0.846191,0.353516,0
32630,-0.604004,0.745117,0.380371,0
32650,-0.517578,0.669434,0.441406,0
32670,-0.464844,0.574707,0.553711,0
32690,-0.443359,0.525879,0.585449,0
32710,-0.425293,0.495117,0.598145,0
32730,-0.480957,0.475098,0.589355,0
32750,-0.508301,0.469727,0.583496,0
32770,-0.617676,0.655762,0.518555,0
32790,-0.674805,0.749023,0.444336,0
32810,-0.574219,0.878418,0.341797,0
32830,-0.64502,0.77002,0.399414,0
32850,-0.710449,0.60498,0.368652,0
32870,-0.641602,0.43457,0.379883,0
32890,-0.67627,0.35498,0.361328,0
32910,-0.79248,0.346191,0.322754,0
32930,-0.848633,0.375977,0.289551,0
32950,-0.882812,0.389648,0.263672,0
32970,-0.940918,0.352539,0.234375,0
32990,-0.949219,0.333984,0.208984,0
33010,-0.904785,0.357422,0.246094,0
33030,-0.943848,0.319336,0.319336,0
33050,-0.936523,0.275879,0.294434,0
33070,-0.854492,0.427246,0.227051,0
33090,-0.690918,0.535645,0.210938,0
33110,-0.515625,0.585938,0.242676,0
33130,-0.572754,0.401367,0.483398,0
33150,-0.777344,0.334961,0.593262,0
33170,-0.728516,0.269531,0.514648,0
33190,-0.585449,0.333008,0.455078,0
33210,-0.679688,0.410156,0.480469,0
33230,-0.813477,0.424805,0.517578,0
33250,-0.734375,0.337402,0.61084,0
33270,-0.683105,0.318848,0.62207,0
33290,-0.70459,0.394531,0.590332,0
33310,-0.672852,0.44873,0.54248,0
33330,-0.609863,0.40625,0.553711,0
33350,-0.544434,0.367676,0.572266,0
33370,-0.507324,0.388184,0.583008,0
33390,-0.46875,0.408203,0.586426,0
33410,-0.414062,0.504883,0.615234,0
33430,-0.40918,0.529297,0.64209,0
33450,-0.450684,0.533203,0.683594,0
33470,-0.46875,0.482422,0.683105,0
33490,-0.466309,0.529297,0.692383,0
33510,-0.442383,0.616211,0.774414,0
33530,-0.390625,0.617188,0.729004,0
33550,-0.394531,0.621582,0.693848,0
33570,-0.470215,0.670898,0.662598,0
33590,-0.535645,0.699707,0.671387,0
33610,-0.525391,0.714844,0.694336,0
33630,-0.497559,0.792969,0.607422,0
33650,-0.500488,0.71875,0.632324,0
33670,-0.558105,0.626465,0.672363,0
33690,-0.616211,0.552246,0.686523,0
33710,-0.662109,0.614746,0.632812,0
33730,-0.71875,0.625,0.635742,0
33750,-0.647949,0.660645,0.682617,0
33770,-0.520996,0.600586,0.631348,0
33790,-0.473145,0.614258,0.668457,0
33810,-0.302246,0.411133,0.680176,0
33830,-0.178711,0.355469,0.578613,0
33850,-0.0532227,0.442383,0.550781,0
33870,-0.0527344,0.556641,0.474121,0
33890,0.0727539,0.629395,0.672852,0
33910,0.611816,0.819824,1.01904,0
33930,0.402344,0.482422,0.705078,0
33950,-0.307617,0.511719,0.571777,0
33970,-0.416992,0.53125,0.474121,0
33990,-0.486816,0.352051,0.597656,0
34010,-0.074707,0.441406,0.947754,0
34030,0.00341797,0.706055,0.851562,0
34050,-0.381348,0.714844,0.656738,0
34070,-0.243164,0.866211,0.647461,0
34090,-0.151367,0.586426,0.655273,0
34110,-0.125488,0.48584,0.694824,0
34130,-0.127441,0.522461,0.681641,0
34150,-0.166016,0.595215,0.675781,0
34170,-0.174316,0.59082,0.696289,0
34190,-0.158203,0.624023,0.691406,0
34210,-0.17041,0.640625,0.683105,0
34230,-0.17334,0.634766,0.670898,0
34250,-0.174316,0.623535,0.695801,0
34270,-0.186035,0.614258,0.725586,0
34290,-0.19043,0.56543,0.739258,0
34310,-0.20166,0.573242,0.712891,0
34330,-0.17041,0.612305,0.690918,0
34350,-0.171875,0.617676,0.692871,0
34370,-0.171875,0.604492,0.688477,0
34390,-0.168457,0.591797,0.685547,0
34400,-0.165527,0.59375,0.692871,0
34430,-0.151855,0.567871,0.700684,0
34450,-0.17041,0.564941,0.73291,0
34470,-0.0078125,0.526367,0.996094,0
34490,-1.06299,0.348145,0.726074,0
34510,-0.555664,0.322266,0.780273,0
34530,-0.890625,0.400879,0.0214844,0
34550,0.0209961,0.831055,0.448242,0
34570,0.455078,0.716309,1.47803,0
34590,-0.65625,0.280273,0.625,0
34610,-0.612793,0.402344,0.84375,0
34630,-0.27832,0.633301,0.596191,0
34650,-0.17041,0.580566,0.69043,0
34670,-0.17627,0.592773,0.708008,0
34690,-0.203125,0.577637,0.70459,0
34710,-0.206543,0.592773,0.701172,0
34730,-0.162109,0.601562,0.680664,0
34750,0.0175781,0.523926,1.0498,0
34770,-1.09277,0.467285,0.272461,0
34790,0.148926,0.682617,0.448242,0
34810,-0.185059,0.578125,0.703125,0
34830,-0.15625,0.584961,0.713379,0
34850,-0.193848,0.596191,0.717285,0
34870,-0.197754,0.595215,0.716797,0
34890,-0.18457,0.587891,0.708984,0
34910,-0.161621,0.583008,0.705566,0
34930,-0.163574,0.568848,0.699707,0
34950,-0.162109,0.573242,0.708984,0
34970,-0.16748,0.562012,0.712402,0
34990,-0.164062,0.577637,0.716797,0
35010,-0.174316,0.582031,0.713867,0
35030,-0.172852,0.584961,0.712402,0
35050,-0.180176,0.583008,0.713379,0
35070,-0.187012,0.581055,0.715332,0
35090,-0.183105,0.570312,0.720215,0
35110,-0.169922,0.573242,0.712402,0
35130,-0.154785,0.590332,0.711914,0
35150,-0.163086,0.571777,0.718262,0
35170,-0.166992,0.578125,0.715332,0
35190,-0.17627,0.569824,0.714355,0
35210,-0.186523,0.581543,0.708984,0
35220,-0.183594,0.588867,0.70459,0
35240,-0.174316,0.583496,0.70166,0
35260,-0.162109,0.567383,0.713867,0
35280,-0.161621,0.567383,0.714355,0
35300,-0.165039,0.571289,0.725098,0
35320,-0.182617,0.572266,0.723145,0
35340,-0.180176,0.581543,0.712891,0
35360,-0.177246,0.583984,0.707031,0
35380,-0.164551,0.562988,0.716309,0
35400,-0.162109,0.558594,0.73291,0
35420,-0.177246,0.570312,0.729004,0
35440,-0.179199,0.572266,0.719238,0
35460,-0.15625,0.576172,0.708496,0
35480,-0.164062,0.57373,0.72168,0
35500,-0.173828,0.566406,0.730957,0
35520,-0.161621,0.569824,0.719727,0
35540,-0.161133,0.583008,0.70166,0
35560,-0.157715,0.58252,0.706543,0
35580,-0.166504,0.572754,0.712891,0
35600,-0.17041,0.55957,0.713867,0
35620,-0.166504,0.552246,0.715332,0
35640,-0.163574,0.559082,0.710938,0
35660,-0.168457,0.566895,0.710449,0
35680,-0.160156,0.567383,0.704102,0
35700,-0.144043,0.563477,0.711914,0
35720,-0.152832,0.564941,0.717773,0
35740,-0.158203,0.570312,0.725098,0
35760,-0.176758,0.57373,0.728516,0
35780,-0.170898,0.572266,0.725586,0
35800,-0.163086,0.569824,0.727051,0
35820,-0.168457,0.562012,0.728516,0
35840,-0.169434,0.561523,0.727539,0
35860,-0.166992,0.556152,0.721191,0
35880,-0.184082,0.560059,0.723633,0
35900,-0.179199,0.556152,0.722168,0
35920,-0.160156,0.55127,0.719727,0
35940,-0.155762,0.54541,0.728516,0
35960,-0.17627,0.547852,0.72998,0
35980,-0.191895,0.550293,0.731934,0
36000,-0.165039,0.548828,0.737793,0
36020,-0.146973,0.536133,0.747559,0
36040,-0.148438,0.538086,0.750488,0
36060,-0.174805,0.547852,0.75,0
36080,-0.182129,0.541992,0.749023,0
36100,-0.160156,0.543945,0.742676,0
36120,-0.171875,0.532715,0.756836,0
36140,-0.172363,0.529785,0.780273,0
36160,-0.189941,0.516113,0.804199,0
36180,-0.19043,0.527344,0.802734,0
36200,-0.220215,0.559082,0.782715,0
36220,-0.199219,0.58252,0.75293,0
36240,-0.141113,0.598145,0.744141,0
36260,-0.125488,0.561523,0.751465,0
36280,-0.126953,0.564453,0.767578,0
36300,-0.11377,0.519043,0.776855,0
36320,-0.0991211,0.486816,0.833984,0
36340,-0.104004,0.429199,0.893555,0
36360,0.0249023,0.515137,0.845215,0
36380,0.120605,0.554199,0.83252,0
36400,0.253906,0.424805,0.842773,0
36420,0.32666,0.296387,0.883789,0
36440,0.268555,0.247559,0.897461,0
36460,0.199219,0.312012,0.875977,0
36480,0.146973,0.349609,0.846191,0
36500,0.101562,0.329102,0.794922,0
36520,0.00634766,0.245117,0.759277,0
36540,-0.0517578,0.138672,0.736328,0
36560,0.221191,0.196777,0.552734,0
36580,-0.149414,0.0688477,0.373047,0
36600,-0.629883,-0.11377,0.793457,0
36620,-0.742676,-0.114258,1.01221,0
36640,-0.720215,-0.0761719,1.04395,0
36660,-0.695801,-0.0410156,1.00488,0
36680,-0.625,0.0834961,0.887207,0
36700,-0.470703,0.147461,0.752441,0
36720,-0.467773,-0.312988,0.641113,0
36740,-0.252441,0.247559,0.560059,0
36760,-0.595215,0.265625,0.370117,0
36780,0.289062,-0.112305,0.189453,0
36800,-2.63965,-0.779785,1.01904,0
36820,-0.21582,-0.140625,0.808594,0
36840,0.618652,-0.25,0.745605,0
36860,-0.727051,-0.22168,0.84668,0
36880,-2.91992,-0.446777,0.564941,0
36900,-1.31006,-0.910645,0.98584,0
36920,-1.55371,-0.96582,1.08008,0
36940,-0.17334,0.0737305,-0.0742188,0
36960,-3.4043,0.599609,0.496582,0
36980,-0.875488,-0.00732422,-0.59082,0
37000,2.68359,-0.964844,0.236328,0
37020,-1.10205,0.362793,1.93213,0
37040,1.04541,-0.544434,0.53418,0
37060,-0.563965,0.84668,1.271,0
37080,-0.678223,0.509277,0.787598,0
37100,-0.725586,0.209961,0.250488,0
37120,0.188965,0.585449,1.31152,0
37140,0.00390625,0.639648,0.330566,0
37160,-0.174805,0.516113,0.0888672,0
37180,-0.317383,0.637207,-0.208008,0
37200,-1.00244,0.351562,-0.336914,0
37220,-1.46436,0.0102539,-0.252441,0
37240,-1.0835,0.333008,-0.261719,0
37260,-0.856934,0.5625,-0.333496,0
37280,-1.43555,0.421387,-0.91748,0
37300,-1.87061,-0.0976562,-0.992188,0
37320,-2.17383,0.146484,-1.47803,0
37340,-1.55322,-0.861328,-0.54248,0
37360,1.50977,1.94385,1.05469,0
37380,0.251465,-1.29883,2.80273,0
37400,0.65332,-0.00244141,1.86816,0
37420,-0.0405273,0.316406,0.417969,0
37440,-1.00098,0.101074,0.0522461,0
37460,-0.0185547,-0.268066,1.36768,0
37470,0.00341797,-0.188965,1.67383,0
37480,-0.587402,-0.126953,1.24365,0
37500,-0.54541,0.179199,0.392578,0
37520,-0.17334,0.202637,1.07178,0
37560,-0.203125,0.383789,1.33008,0
37580,0.0175781,0.412109,1.6001,0
37600,-0.5,0.557129,1.57031,0
37620,0.155273,0.33252,0.745117,0
37640,0.38916,0.238281,1.1543,0
37660,0.145508,0.369141,0.511719,0
37680,-0.239258,0.518555,1.01904,0
37700,-0.163086,0.130859,0.95459,0
37720,-0.525879,0.379883,0.856934,0
37740,-0.197754,0.51123,0.930176,0
37760,-0.571777,0.543945,1.33936,0
37780,-0.789551,0.336914,1.3208,0
37800,-1.53418,-0.0664062,0.565918,0
37820,-0.795898,-0.0800781,0.228516,0
37840,-0.0991211,-0.147949,0.487305,0
37860,0.982422,-0.117676,0.340332,0
37870,0.59082,0.270996,0.463379,0
37890,0.135742,0.572266,0.624023,0
37910,-1.13721,0.405273,1.01807,0
37930,-1.92432,-0.129883,0.69873,0
37950,-0.549316,0.0317383,0.474121,0
37970,0.780273,-0.896484,0.640625,0
37990,2.31885,0.425781,2.17529,0
38010,0.780762,-0.142578,1.50391,0
38030,0.322266,-0.660156,0.171875,0
38050,0.421387,0.0175781,1.30322,0
38070,-0.114746,-0.518066,0.810059,0
38090,0.276367,-0.387207,0.682129,0
38110,0.188965,0.0761719,1.04102,0
38130,0.237793,-0.231445,0.985352,0
38150,-0.300781,-1.229,1.40479,0
38170,-0.450684,-1.06201,0.508789,0
38190,-0.132812,-0.89502,0.714355,0
38210,0.460449,-0.637207,1.1333,0
38230,0.82666,0.116699,0.918945,0
38250,0.282715,0.0571289,1.02148,0
38270,0.501953,-0.0932617,1.04199,0
38290,0.599121,0.0561523,0.522461,0
38310,0.808105,-0.258301,0.663086,0
38330,0.794922,0.0756836,0.701172,0
38350,0.279297,0.562012,0.282227,0
38370,-0.190918,0.922852,0.286133,0
38390,-1.43799,0.239746,0.841797,0
38410,1.92041,0.657715,1.59326,0
38430,1.25342,0.260742,-0.191895,0
38450,1.0083,0.736816,0.363281,0
38470,0.209961,0.578613,0.34668,0
38490,1.03955,0.599609,0.314941,0
38510,0.334473,0.316406,0.272949,0
38530,1.14502,0.498047,0.0512695,0
38550,1.19922,0.105469,0.0683594,0
38570,0.786133,0.420898,0.0136719,0
38590,1.22607,0.524902,0.205078,0
38610,0.859863,0.6875,0.0317383,0
38630,0.405273,0.512207,0.219727,0
38650,0.626465,0.428711,0.0996094,0
38670,1.12549,-0.163086,0.565918,0
38690,-0.37793,-0.356934,0.572754,0
38710,0.61084,1.7627,-0.493164,0
38730,0.28125,0.112793,0.47998,0
38750,-1.95215,1.36475,1.09961,0
38770,0.278809,0.914062,0.200684,0
38790,1.83105,0.790527,0.844238,0
38810,5.29639,0.731445,-1.59521,0
38830,0.749512,1.97705,0.306641,0
38850,-0.721191,0.310059,0.953613,0
38870,1.33203,0.243164,0.430664,0
38890,0.236328,0.641113,0.530762,0
38910,1.00537,0.36084,0.799805,0
38930,0.586426,0.620605,0.598633,0
38950,0.523926,0.454102,0.580078,0
38970,0.47168,0.290039,0.608887,0
38990,0.228027,0.298828,0.600098,0
39010,0.421387,0.324219,0.674316,0
39030,0.603516,0.235352,0.567383,0
39050,0.0419922,0.220215,0.591309,0
39070,0.160645,0.225586,0.565918,0
39090,0.62793,0.481445,0.55127,0
39110,0.747559,0.42041,0.62793,0
39130,0.440918,0.446777,0.540527,0
39150,0.438965,0.174316,0.603027,0
39170,0.0078125,0.337891,0.375977,0
39190,-0.027832,0.399414,0.579102,0
39210,0.385254,0.40918,0.679688,0
39230,0.382812,0.359375,0.737793,0
39250,0.34668,0.32959,0.718262,0
39270,0.525879,0.396973,0.864258,0
39290,0.452148,0.514648,0.964355,0
39310,0.336914,0.381348,0.892578,0
39330,0.249023,0.262695,0.851562,0
39350,0.255859,0.320312,0.81543,0
39370,0.314453,0.460938,0.821289,0
39390,0.322754,0.371094,0.85498,0
39410,0.214355,0.19873,0.860352,0
39430,0.0693359,0.384277,0.80957,0
39450,0.240723,0.445312,0.949707,0
39470,0.279785,0.247559,0.777344,0
39490,0.316406,0.29541,0.703613,0
39510,0.150879,-0.328125,0.675781,0
39530,0.155762,-0.495117,0.761719,0
39550,0.453125,-0.512695,0.946289,0
39570,0.63916,-0.601074,0.928711,0
39590,0.576172,-0.639648,0.920898,0
39610,0.668457,-0.428223,0.946289,0
39630,0.752441,-0.202637,0.872559,0
39650,0.570312,0,0.754883,0
39670,0.351562,0.152344,0.73584,0
39690,0.267578,0.400879,0.78418,0
39710,0.200195,0.320801,0.797852,0
39730,0.170898,0.0615234,0.845215,0
39750,0.0795898,-0.192871,0.842285,0
39770,-0.0791016,-0.233398,0.847168,0
39790,-0.0922852,-0.0283203,0.844238,0
39810,-0.0620117,0.0761719,0.83252,0
39830,-0.0297852,0.000976562,0.828125,0
39850,-0.027832,-0.059082,0.842773,0
39870,0,-0.0371094,0.870117,0
39890,0.0541992,0.00488281,0.861328,0
39910,-0.0136719,-0.0229492,0.814453,0
39930,-0.0698242,0.000488281,0.804199,0
39950,-0.03125,0.0820312,0.805176,0
39970,0.0898438,0.153809,0.812988,0
39990,0.125,0.105957,0.844727,0
40010,0.155273,0.0795898,0.85791,0
40030,0.263184,0.129883,0.856445,0
40050,0.403809,0.205078,0.913086,0
40070,0.757812,0.185547,1.04004,0
40090,0.324707,-0.148438,1.61084,0
40110,0.182617,-0.14502,0.830566,0
40130,0.0351562,0.0688477,0.850586,0
40150,0.131836,0.359375,0.743164,0
40170,0.26709,0.262695,0.797852,0
40190,0.213379,0.229492,0.814941,0
40210,0.224121,0.236816,0.824707,0
40230,0.229492,0.23584,0.830078,0
40250,0.234863,0.268555,0.858398,0
40270,0.225586,0.29541,0.848633,0
40290,0.206543,0.24707,0.849609,0
40310,0.239258,0.211914,0.83252,0
40330,0.215332,0.148926,0.880371,0
40350,0.166504,0.0244141,0.865234,0
40370,0.09375,0.0703125,0.897461,0
40390,0.0161133,-0.194336,0.962891,0
40410,-0.105469,-0.0249023,0.945312,0
40430,-0.0839844,0.251465,0.818359,0
40450,0.0170898,0.266602,0.908203,0
40470,-0.0126953,0.152344,0.900879,0
40480,0.019043,0.166992,0.907715,0
40500,0.0722656,0.166016,0.943848,0
40520,-0.0385742,0.139648,0.902344,0
40540,-0.11377,0.0742188,0.871582,0
40560,-0.193359,0.043457,0.916504,0
40580,-0.165039,0.0117188,0.922852,0
40600,-0.19873,0.0922852,0.920898,0
40620,-0.219727,0.170898,0.877441,0
40640,-0.228027,0.171875,0.891113,0
40660,-0.17627,0.293457,0.96582,0
40680,-0.281738,0.336426,1.03369,0
40700,-0.185059,0.255859,1.03418,0
40720,-0.177246,0.276367,1.13086,0
40740,-0.30127,0.19043,0.978027,0
40760,-0.337402,0.0786133,0.831055,0
40780,-0.574707,-0.188965,0.987793,0
40800,-0.334473,-0.267578,1.05518,0
40820,-0.382324,0.0957031,0.883789,0
40840,-0.643066,0.272949,0.734375,0
40860,-0.599121,0.257812,0.758789,0
40880,-0.491211,0.123535,0.813965,0
40900,-0.354004,0.0830078,0.834473,0
40920,-0.320801,0.0268555,0.770508,0
40940,-0.354004,-0.0229492,0.761719,0
40960,-0.335938,-0.0258789,0.697266,0
40980,-0.26416,-0.0219727,0.658203,0
41000,-0.297363,-0.0854492,0.658691,0
41020,-0.294922,-0.0273438,0.652832,0
41040,-0.308105,-0.0322266,0.653809,0
41060,-0.152832,-0.140625,0.645996,0
41080,0.109863,-0.158203,0.727539,0
41100,0.200195,-0.117676,0.726562,0
41120,0.294922,-0.0874023,0.727539,0
41140,0.488281,-0.147461,0.724609,0
41160,0.625977,-0.226562,0.751953,0
41180,0.583984,-0.345703,0.750488,0
41200,0.54541,-0.296387,0.771484,0
41220,0.606934,-0.217285,0.821289,0
41240,0.438477,-0.179199,1.09473,0
41260,0.391602,-0.0410156,1.09033,0
41280,0.503418,-0.276367,0.983887,0
41300,0.320312,-0.43457,1.03467,0
41320,0.320801,-0.380859,1.00244,0
41340,0.343262,-0.266602,0.922852,0
41360,0.346191,-0.173828,0.902344,0
41380,0.373047,-0.0234375,0.901367,0
41400,0.305664,0.0766602,0.904297,0
41420,0.267578,0.0244141,0.916992,0
41440,0.248047,-0.122559,0.946289,0
41460,0.229004,-0.186035,0.93457,0
41480,0.19873,-0.22168,0.904785,0
41500,0.17627,-0.177734,0.890137,0
41520,0.171875,-0.109375,0.879395,0
41540,0.169434,-0.0668945,0.867676,0
41560,0.155273,-0.0644531,0.868652,0
41580,0.175293,-0.0449219,0.883301,0
41600,0.203125,-0.0522461,0.891602,0
41620,0.214844,-0.0708008,0.893066,0
41640,0.227539,-0.0678711,0.875,0
41660,0.233887,-0.0654297,0.878418,0
41680,0.241699,-0.0493164,0.878906,0
41700,0.248047,-0.0429688,0.871094,0
41720,0.235352,-0.0463867,0.864746,0
41740,0.220215,-0.0488281,0.873047,0
41760,0.229004,-0.0288086,0.885254,0
41780,0.236816,-0.0371094,0.881348,0
41800,0.230957,-0.0527344,0.876953,0
41820,0.221191,-0.0429688,0.867676,0
41840,0.222656,-0.0209961,0.867676,0
41860,0.224609,-0.00488281,0.874023,0
41880,0.233887,-0.00878906,0.881836,0
41900,0.230469,-0.0268555,0.882812,0
41920,0.229004,-0.0380859,0.874023,0
41940,0.226074,-0.0385742,0.872559,0
41960,0.224121,-0.0268555,0.880371,0
41980,0.220215,-0.0244141,0.873535,0
42000,0.209961,-0.0439453,0.86084,0
42020,0.208008,-0.0517578,0.853027,0
42040,0.21582,-0.0405273,0.855469,0
42060,0.240723,-0.0253906,0.881348,0
42080,0.262207,-0.0078125,0.88623,0
42100,0.259277,-0.0126953,0.874512,0
42120,0.233887,-0.0351562,0.867676,0
42140,0.22998,-0.0131836,0.869141,0
42160,0.233398,-0.00488281,0.871094,0
42180,0.237305,-0.00732422,0.870605,0
42200,0.243164,-0.0258789,0.873047,0
42220,0.233398,-0.0258789,0.875488,0
42240,0.237793,-0.00634766,0.874512,0
42260,0.237793,-0.0170898,0.871094,0
42280,0.233887,-0.0244141,0.871094,0
42300,0.231934,-0.015625,0.869629,0
42320,0.234375,-0.019043,0.871582,0
42340,0.240723,-0.0253906,0.881836,0
42360,0.235352,-0.027832,0.866699,0
42380,0.232422,-0.0288086,0.871582,0
42400,0.240234,0.00292969,0.876465,0
42420,0.251953,0.0161133,0.873047,0
42440,0.245605,-0.00683594,0.868164,0
42460,0.242676,-0.0136719,0.870117,0
42480,0.240723,-0.00927734,0.858398,0
42500,0.244629,-0.00878906,0.864258,0
42520,0.248047,-0.012207,0.863281,0
42540,0.255371,-0.000976562,0.85498,0
42560,0.26123,0.00878906,0.864258,0
42580,0.257812,0.00390625,0.85791,0
42600,0.247559,0.00244141,0.875,0
42620,0.249512,0.00537109,0.879395,0
42640,0.248047,-0.00439453,0.88623,0
42660,0.249023,-0.0292969,0.875977,0
42680,0.243652,-0.043457,0.871094,0
42700,0.24707,-0.0375977,0.856934,0
42720,0.261719,-0.0688477,0.852539,0
42740,0.256836,-0.0395508,0.875,0
42760,0.238281,0.00488281,0.889648,0
42780,0.24707,0.0307617,0.880859,0
42800,0.233398,0.0219727,0.867676,0
42820,0.22998,0.0263672,0.865723,0
42840,0.232422,0.0258789,0.857422,0
42860,0.23877,0.0214844,0.856934,0
42880,0.256348,0.0356445,0.858887,0
42900,0.27002,0.0302734,0.85791,0
42920,0.273926,0.0249023,0.85791,0
42940,0.26709,0.0209961,0.85791,0
42960,0.253906,0.00878906,0.866211,0
42980,0.242676,0.00488281,0.874023,0
43000,0.244629,-0.00195312,0.871582,0
43020,0.250977,-0.0180664,0.882324,0
43040,0.256348,-0.000488281,0.890625,0
43060,0.263672,0.00732422,0.874512,0
43080,0.248535,-0.00878906,0.875488,0
43100,0.245117,-0.00683594,0.863281,0
43120,0.248047,0.00341797,0.853516,0
43130,0.256348,0.00439453,0.851074,0
43150,0.251953,0.00976562,0.852539,0
43170,0.262207,0.0214844,0.856934,0
43190,0.264648,0.0244141,0.858398,0
43210,0.254395,0.0224609,0.876465,0
43230,0.239746,0.0112305,0.868652,0
43250,0.248047,0.00439453,0.875488,0
43270,0.244141,-0.00146484,0.876953,0
43290,0.252441,-0.0126953,0.867676,0
43310,0.257812,-0.0200195,0.876465,0
43330,0.262207,-0.0117188,0.875977,0
43350,0.262695,-0.00634766,0.865234,0
43370,0.260254,-0.00292969,0.86377,0
43390,0.249512,0.00488281,0.858398,0
43410,0.248535,0.00146484,0.845215,0
43430,0.248535,0.00390625,0.861328,0
43450,0.243652,0.012207,0.86084,0
43470,0.249512,0.00976562,0.859375,0
43490,0.253906,0.0214844,0.874023,0
43510,0.251953,0.0146484,0.865234,0
43530,0.248535,0.000976562,0.87207,0
43550,0.245605,0.000488281,0.871094,0
43570,0.237793,0.000488281,0.875,0
43590,0.248047,-0.00146484,0.880371,0
43610,0.25,-0.0131836,0.870605,0
43630,0.257324,-0.00927734,0.881348,0
43650,0.269531,0.00732422,0.887207,0
43670,0.258301,0.000488281,0.869629,0
43690,0.248047,-0.0112305,0.862793,0
43710,0.247559,0.0078125,0.851562,0
43730,0.246582,0.0166016,0.842773,0
43750,0.251465,0.0161133,0.852051,0
43770,0.260742,0.0219727,0.854492,0
43790,0.260742,0.0273438,0.860352,0
43810,0.253418,0.0268555,0.865234,0
43830,0.243652,0.012207,0.871582,0
43850,0.240723,0,0.880371,0
43870,0.249512,-0.0102539,0.88916,0
43890,0.254883,-0.0185547,0.881836,0
43910,0.263184,-0.019043,0.873535,0
43930,0.266113,-0.0131836,0.866699,0
43950,0.268555,0.000976562,0.871094,0
43970,0.263672,0.00292969,0.864746,0
43990,0.260254,0.000488281,0.862793,0
44010,0.252441,0.0078125,0.859863,0
44030,0.248535,0.00927734,0.85498,0
44050,0.242676,0.0136719,0.856934,0
44070,0.246094,0.0175781,0.85498,0
44090,0.24707,0.0288086,0.865723,0
44110,0.244629,0.0234375,0.864258,0
44130,0.248047,0.015625,0.870605,0
44150,0.254395,0.0136719,0.878418,0
44170,0.252441,0.00390625,0.875977,0
44190,0.257324,0.00244141,0.873047,0
44210,0.266113,-0.00634766,0.867188,0
44230,0.260742,-0.0141602,0.864746,0
44250,0.255371,-0.00683594,0.867188,0
44270,0.255859,0.00244141,0.870117,0
44290,0.257324,0.00927734,0.864258,0
44310,0.257324,0.0107422,0.872559,0
44330,0.256836,0.0107422,0.869141,0
44350,0.251953,0.0107422,0.873047,0
44370,0.25,0.0078125,0.868652,0
44390,0.244141,0.0161133,0.867676,0
44410,0.244629,0.00732422,0.865723,0
44430,0.25293,-0.0078125,0.867188,0
44450,0.258301,-0.0112305,0.868164,0
44470,0.259277,-0.00439453,0.864746,0
44490,0.254883,-0.00585938,0.860352,0
44510,0.25293,0,0.864258,0
44530,0.253418,0.00390625,0.866699,0
44550,0.245117,0.00537109,0.86377,0
44570,0.243652,0.00146484,0.862793,0
44590,0.246094,0.00537109,0.866211,0
44610,0.244629,0.00488281,0.873535,0
44630,0.248535,0.00146484,0.867188,0
44650,0.245605,-0.00439453,0.864258,0
44670,0.244141,-0.00244141,0.866699,0
44690,0.248047,0.00195312,0.86377,0
44710,0.248535,-0.00146484,0.866211,0
44730,0.254395,-0.00292969,0.864258,0
44750,0.253906,-0.000976562,0.86377,0
44770,0.260742,0.00537109,0.866699,0
44790,0.256348,0.0112305,0.870117,0
44810,0.258301,-0.00244141,0.871582,0
44830,0.254395,-0.00195312,0.864258,0
44850,0.257324,0.00537109,0.867676,0
44870,0.250488,0.00195312,0.867676,0
44890,0.252441,0.00146484,0.863281,0
44910,0.250488,0.00634766,0.871582,0
44930,0.253906,0.00878906,0.863281,0
44950,0.24707,0.00830078,0.867188,0
44970,0.254395,0.00585938,0.856934,0
44990,0.259277,0.00927734,0.863281,0
45010,0.283203,0.0078125,0.863281,0
45030,0.269043,0.0078125,0.861816,0
45050,0.256836,0.000488281,0.862305,0
45070,0.251465,0.00488281,0.862793,0
45090,0.24707,0.00537109,0.862305,0
45110,0.242188,0.00537109,0.868164,0
45130,0.240234,0.00146484,0.873535,0
45150,0.248047,0.00537109,0.880371,0
45170,0.254395,0.00244141,0.862305,0
45190,0.246582,0.000976562,0.867188,0
45210,0.257324,0.00146484,0.865723,0
45230,0.26709,0.00732422,0.868652,0
45250,0.264648,0.00976562,0.861328,0
45270,0.265137,0.00341797,0.864746,0
45290,0.26709,0.00732422,0.86084,0
45310,0.263672,0.00878906,0.857422,0
45330,0.256348,0.0102539,0.861328,0
45350,0.253906,0.0136719,0.867676,0
45370,0.251953,0.0102539,0.862305,0
45390,0.25293,0.00830078,0.868164,0
45410,0.259277,0.0102539,0.867188,0
45430,0.264648,0.0102539,0.863281,0
45450,0.259277,0.00634766,0.866699,0
45470,0.258789,0.00341797,0.870117,0
45490,0.258301,0.00390625,0.866699,0
45510,0.259277,0.00488281,0.860352,0
45530,0.260254,0.0107422,0.861816,0
45550,0.260254,0.0117188,0.862793,0
45570,0.260742,0.0107422,0.867676,0
45590,0.260254,0.0107422,0.862793,0
45610,0.260742,0.0107422,0.862793,0
45630,0.260742,0.0102539,0.868164,0
45650,0.260254,0.00976562,0.866699,0
45670,0.260254,0.00341797,0.868164,0
45690,0.255859,0.0126953,0.865234,0
45710,0.259277,0.00488281,0.865234,0
45730,0.262695,0.00732422,0.858398,0
45750,0.259277,0.00830078,0.866211,0
45760,0.258789,0,0.865723,0
45780,0.257324,0.00634766,0.858887,0
45800,0.260254,0.0102539,0.860352,0
45820,0.260254,0.0117188,0.862793,0
45840,0.26123,0.00976562,0.865723,0
45860,0.261719,0.00732422,0.866699,0
45880,0.257324,0.00488281,0.867188,0
45900,0.258789,0.00683594,0.86377,0
45920,0.261719,0.00439453,0.868164,0
45940,0.26123,-0.00195312,0.859863,0
45960,0.257324,0,0.853516,0
45980,0.258789,0.0078125,0.859375,0
46000,0.255371,0.00732422,0.863281,0
46020,0.257324,0.00585938,0.867676,0
46040,0.256348,0.00976562,0.868652,0
46060,0.258789,0.00390625,0.870117,0
46080,0.259766,0.00439453,0.86377,0
46100,0.258301,0.00341797,0.862793,0
46120,0.260254,0.00732422,0.866211,0
46140,0.255371,0.00341797,0.861816,0
46160,0.257812,0.00292969,0.86084,0
46180,0.251465,0.00585938,0.865234,0
46200,0.256348,0.00390625,0.868164,0
46220,0.251953,0.00732422,0.866699,0
46240,0.258301,0.00878906,0.862793,0
46260,0.259766,0.000976562,0.868652,0
46280,0.262695,0.000488281,0.859863,0
46300,0.263184,0.00830078,0.868652,0
46320,0.26416,0.00439453,0.868164,0
46340,0.258789,0.00195312,0.861328,0
46360,0.259277,0.00341797,0.862305,0
46380,0.26416,0.00830078,0.861328,0
46400,0.265625,0.00146484,0.862793,0
46420,0.257324,0.00683594,0.864258,0
46440,0.260254,0.00830078,0.861328,0
46460,0.255859,0.00488281,0.865234,0
46480,0.260254,0.00585938,0.863281,0
46500,0.260254,0.00341797,0.865234,0
46520,0.260254,0.00341797,0.860352,0
46540,0.255859,0.00585938,0.859375,0
46560,0.263184,0.00732422,0.860352,0
46580,0.263672,0.00390625,0.857422,0
46600,0.26416,-0.00439453,0.854492,0
46620,0.262695,-0.00292969,0.853516,0
46640,0.258301,0.00390625,0.848633,0
46660,0.257324,0.00732422,0.851074,0
46680,0.257812,0.00634766,0.845703,0
46700,0.257324,0.00195312,0.842285,0
46720,0.250977,0.0112305,0.838379,0
46740,0.255371,0.0131836,0.840332,0
46760,0.259766,0.0205078,0.844727,0
46780,0.261719,0.0185547,0.844238,0
46800,0.258301,0.0219727,0.847656,0
46820,0.263184,0.0283203,0.839355,0
46840,0.266113,0.0341797,0.849121,0
46860,0.276367,0.0332031,0.84082,0
46880,0.276855,0.0351562,0.851562,0
46900,0.287598,0.0439453,0.847656,0
46920,0.282715,0.0283203,0.850586,0
46940,0.285645,0.0454102,0.845215,0
46960,0.285156,0.0566406,0.854004,0
46980,0.28418,0.0756836,0.850586,0
47000,0.280762,0.0908203,0.857422,0
47020,0.293457,0.103027,0.849121,0
47040,0.294434,0.116699,0.852539,0
47060,0.294922,0.128906,0.853516,0
47080,0.297363,0.131348,0.856445,0
47100,0.292969,0.136719,0.861328,0
47120,0.293945,0.13916,0.858398,0
47140,0.29248,0.155762,0.872559,0
47160,0.281738,0.168457,0.873047,0
47180,0.279297,0.163574,0.87207,0
47200,0.268555,0.157227,0.872559,0
47220,0.266113,0.155273,0.875488,0
47240,0.258301,0.161133,0.870117,0
47260,0.269531,0.166016,0.870605,0
47280,0.256348,0.165527,0.876465,0
47300,0.243164,0.145508,0.895996,0
47320,0.219727,0.0800781,0.950195,0
47340,0.0966797,0.134766,0.90625,0
47360,-0.0219727,0.264648,0.762207,0
47380,-0.135742,0.206055,0.723633,0
47400,-0.132812,0.248535,0.69043,0
47420,-0.113281,0.39209,0.70752,0
47440,-0.133789,0.442871,0.73584,0
47460,-0.00390625,0.325195,0.790039,0
47480,0.0439453,0.268555,0.817383,0
47500,0.0239258,0.277832,0.762207,0
47520,0.0639648,0.286621,0.731934,0
47540,0.116699,0.306152,0.715332,0
47560,0.150879,0.348633,0.723145,0
47580,0.124512,0.329102,0.734863,0
47600,-0.0776367,0.387695,0.714844,0
47620,-0.174805,0.370117,0.686035,0
47640,-0.278809,0.405273,0.723145,0
47660,-0.384277,0.488281,0.741211,0
47680,-0.520508,0.590332,0.725098,0
47700,-0.537109,0.561035,0.683594,0
47720,-0.489746,0.408691,0.675781,0
47740,-0.535645,0.251953,0.655273,0
47760,-0.737793,0.21582,0.600586,0
47780,-0.885254,0.248535,0.557129,0
47800,-0.969238,0.222168,0.509277,0
47820,-1.08496,0.0986328,0.459961,0
47840,-1.12549,0.0126953,0.38916,0
47860,-1.14062,-0.0522461,0.330566,0
47880,-1.17383,-0.0209961,0.259277,0
47900,-1.22607,-0.0390625,0.224609,0
47920,-1.24316,-0.0981445,0.197266,0
47940,-1.20752,-0.198242,0.171875,0
47960,-1.12793,-0.237305,0.199219,0
47980,-1.08691,-0.234375,0.215332,0
48000,-1.09766,-0.226074,0.235352,0
48020,-1.06982,-0.209473,0.271484,0
48040,-1.0127,-0.188477,0.296387,0
48060,-0.967773,-0.157227,0.320312,0
48080,-0.94043,-0.109375,0.333008,0
48100,-0.914062,-0.0854492,0.327637,0
48120,-0.931152,-0.0932617,0.325195,0
48140,-0.944824,-0.134277,0.316895,0
48160,-0.940918,-0.143555,0.307129,0
48180,-0.925293,-0.162109,0.299316,0
48200,-0.927246,-0.169434,0.301758,0
48220,-0.930176,-0.165039,0.304688,0
48240,-0.938965,-0.186035,0.327148,0
48260,-0.945312,-0.161621,0.333496,0
48280,-0.942383,-0.151855,0.327637,0
48300,-0.9375,-0.106934,0.341797,0
48320,-0.9375,-0.0849609,0.358887,0
48340,-0.954102,-0.0986328,0.353027,0
48360,-0.950195,-0.125977,0.356445,0
48380,-0.956543,-0.105957,0.379883,0
48400,-0.977539,-0.0893555,0.378906,0
48410,-0.946777,-0.0302734,0.405273,0
48430,-0.939453,0.0209961,0.425293,0
48450,-0.925781,0.0429688,0.429688,0
48470,-0.913574,0.0537109,0.442383,0
48490,-0.919922,0.0473633,0.446777,0
48510,-0.949219,0.0380859,0.453613,0
48530,-1.00977,0.0375977,0.471191,0
48550,-1.0376,0.0424805,0.477051,0
48570,-1.03467,0.0507812,0.507324,0
48590,-1.03613,0.0610352,0.544434,0
48610,-1.03711,0.0483398,0.567871,0
48630,-0.979004,0.0917969,0.599609,0
48650,-0.919922,0.10791,0.623535,0
48670,-0.820312,0.185547,0.682617,0
48690,-0.748047,0.189453,0.720703,0
48710,-0.666992,0.179688,0.743164,0
48730,-0.620117,0.183594,0.78125,0
48750,-0.622559,0.155273,0.80957,0
48770,-0.494629,0.0942383,0.756836,0
48790,-0.318359,0.151855,0.796875,0
48810,-0.254395,0.244141,0.680664,0
48830,-0.0864258,0.303711,0.63916,0
48850,0.0693359,0.33252,0.593262,0
48870,0.179688,0.400879,0.562012,0
48890,0.128906,0.478516,0.548828,0
48910,0.0820312,0.5,0.574707,0
48930,0.0664062,0.485352,0.61377,0
48950,0.0551758,0.45459,0.635742,0
48970,0.0859375,0.420898,0.662598,0
48990,0.0537109,0.47998,0.669434,0
49010,-0.00195312,0.57959,0.671875,0
49030,0.0532227,0.572754,0.662109,0
49050,0.0678711,0.559082,0.67041,0
49070,0.0571289,0.571289,0.674316,0
49090,0.00292969,0.586426,0.705078,0
49110,-0.0214844,0.61084,0.726562,0
49130,-0.0209961,0.587891,0.744141,0
49150,-0.0620117,0.565918,0.758789,0
49170,-0.059082,0.549805,0.804199,0
49190,-0.0727539,0.608398,0.756836,0
49210,-0.0942383,0.645996,0.748047,0
49230,-0.0864258,0.597168,0.748047,0
49250,-0.100098,0.529297,0.762695,0
49270,-0.122559,0.494141,0.76709,0
49290,-0.120605,0.494141,0.750977,0
49310,-0.109863,0.541992,0.727051,0
49330,-0.0917969,0.569824,0.69043,0
49350,-0.108398,0.557617,0.725586,0
49370,-0.112305,0.57373,0.719727,0
49390,-0.0737305,0.572266,0.694336,0
49410,-0.0708008,0.492676,0.677734,0
49430,-0.0610352,0.378418,0.671875,0
49450,-0.050293,0.361328,0.709961,0
49470,-0.211426,0.41748,0.751465,0
49490,-0.395996,0.437988,0.797363,0
49510,-0.430664,0.378906,0.814941,0
49530,-0.325684,0.310547,0.829102,0
49550,-0.32666,0.367676,0.809082,0
49570,-0.446289,0.558594,0.782715,0
49590,-0.501953,0.588867,0.766602,0
49610,-0.519043,0.446777,0.794922,0
49630,-0.481934,0.320312,0.813477,0
49650,-0.44873,0.291992,0.814453,0
49670,-0.458984,0.339844,0.793457,0
49690,-0.445312,0.393066,0.793945,0
49710,-0.429688,0.39502,0.783203,0
49730,-0.439453,0.32373,0.787598,0
49750,-0.416504,0.283203,0.785156,0
49770,-0.375977,0.291992,0.790527,0
49790,-0.363281,0.320312,0.787109,0
49810,-0.35498,0.32666,0.789062,0
49830,-0.368652,0.339355,0.803711,0
49850,-0.406738,0.351074,0.789551,0
49870,-0.414551,0.350586,0.796875,0
49890,-0.411133,0.336426,0.808105,0
49910,-0.405762,0.336914,0.8125,0
49930,-0.394531,0.34668,0.816895,0
49950,-0.385742,0.354004,0.838379,0
49970,-0.394043,0.401367,0.849121,0
49990,-0.435547,0.436523,0.84082,0
50010,-0.417969,0.467285,0.870117,0
50030,-0.365234,0.475098,0.864746,0
50050,-0.349609,0.512695,0.855957,0
50070,-0.262695,0.510254,0.872559,0
50090,-0.225586,0.477539,0.845215,0
50110,-0.21582,0.416504,0.833496,0
50130,-0.162109,0.381836,0.859863,0
50150,-0.104492,0.402344,0.806152,0
50170,-0.0576172,0.437988,0.750488,0
50190,-0.00390625,0.432617,0.71582,0
50210,0.0180664,0.524902,0.691406,0
50230,0.03125,0.557129,0.680176,0
50250,0.0854492,0.557617,0.710449,0
50270,0.0922852,0.492676,0.73877,0
50290,0.0893555,0.462402,0.743652,0
50310,0.0922852,0.464844,0.725586,0
50330,0.120117,0.473633,0.714844,0
50350,0.117188,0.472168,0.716797,0
50370,0.125488,0.487793,0.702148,0
50390,0.133789,0.493164,0.700684,0
50410,0.158203,0.474121,0.696777,0
50430,0.175781,0.436523,0.680176,0
50450,0.197266,0.437988,0.689941,0
50470,0.22168,0.405762,0.691895,0
50490,0.251953,0.352051,0.694336,0
50510,0.230469,0.350586,0.691406,0
50530,0.220703,0.356445,0.709961,0
50550,0.199707,0.415039,0.71875,0
50570,0.155762,0.477539,0.775391,0
50590,0.166016,0.499023,0.79248,0
50610,0.211914,0.45459,0.773926,0
50630,0.206055,0.43457,0.761719,0
50650,0.228516,0.427734,0.77002,0
50670,0.254883,0.407227,0.796387,0
50690,0.185547,0.348145,0.776855,0
50710,0.146484,0.268066,0.824707,0
50730,0.153809,0.259766,0.837891,0
50750,0.136719,0.270996,0.847656,0
50770,0.147949,0.274414,0.878418,0
50790,0.133789,0.327148,0.913574,0
50810,0.146973,0.416016,0.893555,0
50830,0.17041,0.472168,0.880859,0
50850,0.154297,0.472168,0.844238,0
50870,0.126953,0.427734,0.865234,0
50890,0.11377,0.390625,0.874512,0
50910,0.11084,0.372559,0.871582,0
50930,0.0966797,0.346191,0.925781,0
50950,0.00244141,0.35498,0.898438,0
50970,0.0527344,0.388184,0.800781,0
50990,-0.0166016,0.353027,0.964844,0
51010,-0.0727539,0.390137,0.78125,0
51030,0.14209,0.327637,0.871582,0
51040,0.118652,0.147949,0.859375,0
51060,0.124023,0.351562,0.791016,0
51080,0.193848,0.394043,0.788574,0
51100,0.171875,0.351074,0.789551,0
51120,0.193359,0.294922,0.77832,0
51140,0.221191,0.244629,0.783203,0
51160,0.233398,0.224121,0.796875,0
51180,0.224609,0.256348,0.81543,0
51200,0.210449,0.272949,0.814453,0
51220,0.20166,0.279785,0.819824,0
51240,0.213379,0.274902,0.818359,0
51260,0.198242,0.271484,0.844238,0
51280,0.194824,0.272949,0.839844,0
51300,0.204102,0.280762,0.851074,0
51320,0.20752,0.282715,0.850098,0
51340,0.237793,0.26416,0.844238,0
51360,0.265137,0.247559,0.854492,0
51380,0.278809,0.224121,0.836426,0
51400,0.296875,0.237305,0.823242,0
51420,0.294434,0.258301,0.825684,0
51440,0.295898,0.26416,0.797363,0
51460,0.275391,0.26123,0.79834,0
51480,0.280762,0.285645,0.806641,0
51500,0.256348,0.33252,0.804688,0
51520,0.244141,0.322266,0.807129,0
51540,0.210938,0.324707,0.80127,0
51560,0.20752,0.309082,0.792969,0
51580,0.214355,0.291016,0.812012,0
51600,0.219727,0.312988,0.813477,0
51620,0.250977,0.321289,0.821777,0
51640,0.241211,0.297363,0.791016,0
51660,0.254883,0.261719,0.782715,0
51680,0.265137,0.272461,0.783203,0
51700,0.276367,0.277832,0.789551,0
51720,0.287109,0.276855,0.794434,0
51740,0.291016,0.283203,0.799805,0
51760,0.290039,0.287109,0.800293,0
51780,0.279297,0.300293,0.808105,0
51800,0.259766,0.328613,0.82373,0
51820,0.241699,0.333496,0.838867,0
51840,0.219238,0.320801,0.842773,0
51860,0.224609,0.308105,0.84375,0
51880,0.214844,0.304688,0.853027,0
51900,0.211426,0.305176,0.859863,0
51920,0.212402,0.316895,0.85791,0
51940,0.237305,0.310059,0.859375,0
51960,0.239258,0.287109,0.832031,0
51980,0.248535,0.262207,0.827148,0
52000,0.244629,0.283203,0.796387,0
52020,0.243652,0.307129,0.790039,0
52040,0.235352,0.316895,0.767578,0
52060,0.241699,0.297363,0.78125,0
52080,0.239746,0.307129,0.78418,0
52100,0.219238,0.306152,0.796875,0
52120,0.205078,0.332031,0.817383,0
52140,0.17334,0.350586,0.820801,0
52160,0.172852,0.332031,0.843262,0
52180,0.168457,0.330078,0.85791,0
52200,0.174316,0.325195,0.868164,0
52220,0.16748,0.327148,0.874512,0
52240,0.169434,0.315918,0.871582,0
52260,0.179688,0.298828,0.867676,0
52280,0.202637,0.285645,0.878418,0
52300,0.204102,0.273438,0.873535,0
52320,0.214844,0.25293,0.857422,0
52340,0.231934,0.236328,0.834473,0
52360,0.271973,0.226074,0.790527,0
52380,0.218262,0.168945,0.799805,0
52400,0.178223,0.146484,0.822754,0
52420,0.169434,0.168945,0.848145,0
52440,0.209473,0.243652,0.924316,0
52460,0.140625,0.281738,0.873047,0
52480,0.242676,0.288086,0.99707,0
52500,0.0800781,0.36377,0.898926,0
52520,0.0351562,0.671875,0.811523,0
52540,0.272461,0.544434,0.600586,0
52560,0.291992,0.323242,0.51123,0
52580,0.0478516,0.0253906,0.653809,0
52600,-0.269531,-0.294434,0.891602,0
52620,-0.352051,-0.405762,1.104,0
52640,-0.161133,-0.406738,1.05322,0
52660,-0.0327148,-0.427734,1.00879,0
52680,0.0600586,-0.230469,0.689941,0
52700,0.00976562,-0.0522461,0.575684,0
52720,0.0532227,-0.00341797,0.545898,0
52740,0.0664062,-0.0380859,0.645508,0
52760,-0.112305,-0.167969,0.830566,0
52780,-0.299316,-0.228516,0.9375,0
52800,-0.233398,-0.18457,0.957031,0
52820,-0.305176,-0.170898,1.04395,0
52840,-0.508301,-0.15625,0.972656,0
52860,-0.567871,0.00927734,0.894531,0
52880,-0.341797,0.11084,0.779785,0
52900,-0.205078,0.201172,0.657227,0
52920,-0.214844,0.279785,0.676758,0
52940,-0.339355,0.514648,0.758301,0
52960,-0.542969,0.94873,0.744629,0
52980,-0.691406,1.17432,0.902832,0
53000,-0.663574,0.769531,1.04346,0
53020,-0.68457,0.317871,1.12744,0
53040,-0.908691,-0.0688477,1.06836,0
53060,-1.23975,-0.266602,1.15137,0
53080,-1.42529,-0.235352,1.00146,0
53100,-1.2749,-0.00244141,0.814941,0
53120,-1.19092,0.0307617,0.633789,0
53140,-1.22803,-0.0952148,0.59668,0
53160,-1.26562,-0.355957,0.618652,0
53180,-1.15723,-0.542969,0.556641,0
53200,-0.921387,-0.479492,0.511719,0
53220,-0.758789,-0.211426,0.280762,0
53240,-0.620605,0.10791,0.123535,0
53260,-0.448242,0.262207,0.151367,0
53280,-0.284668,0.244141,0.169434,0
53300,-0.220215,-0.0727539,0.202637,0
53320,-0.186035,-0.296875,0.213867,0
53340,-0.166504,-0.379395,0.183594,0
53360,-0.148438,-0.26123,0.140137,0
53380,-0.137207,-0.106934,0.0410156,0
53400,-0.113281,-0.027832,-0.00634766,0
53420,-0.078125,-0.0205078,-0.0390625,0
53440,-0.128418,0.046875,-0.0385742,0
53460,-0.150879,0.172363,-0.0581055,0
53480,-0.263184,0.402832,0.0634766,0
53500,-0.454102,0.700195,0.412109,0
53520,-0.675781,0.76709,0.806152,0
53540,-0.710449,0.726562,1.29492,0
53560,-0.8125,0.858398,1.92236,0
53580,-0.727051,1.35352,2.54199,0
53600,-0.709961,1.52148,2.76758,0
53620,-0.858398,0.517578,2.20166,0
53640,-0.661133,-0.104004,1.66162,0
53660,-0.439453,-0.103516,1.38477,0
53670,-0.254883,0.355469,1.18652,0
53690,-0.0356445,0.358887,1.0752,0
53710,0.00244141,-0.0849609,1.00928,0
53730,-0.00341797,-0.373535,0.806152,0
53750,0.114258,-0.318848,0.666016,0
53770,0.237793,-0.0708008,0.444824,0
53790,0.166016,0.0942383,0.292969,0
53810,0.106934,0.192383,0.283691,0
53830,0.115723,0.303711,0.373047,0
53850,0.115723,0.44043,0.554199,0
53870,0.30127,0.494141,0.700684,0
53890,0.575684,0.386719,0.878418,0
53910,0.663086,0.42334,1.03271,0
53930,0.457031,0.276855,0.927734,0
53950,0.827637,0.251953,0.714844,0
53970,1.17725,0.0546875,0.310547,0
53990,1.03809,-0.355469,-0.0131836,0
54010,0.950684,-0.655273,-0.183594,0
54030,1.05322,-0.455078,-0.0390625,0
54050,0.757324,0.273438,0.610352,0
54070,-0.563477,0.958984,0.679199,0
54090,-1.18604,1.30225,0.921387,0
54110,0.367188,0.429199,0.796387,0
54130,1.12598,-0.100586,0.529785,0
54150,0.588867,-0.16748,0.432129,0
54170,0.25,-0.0170898,0.746582,0
54190,-0.241699,0.253418,1.02588,0
54210,-0.152832,0.444336,1.08105,0
54230,0.433105,0.513672,0.914062,0
54250,0.532227,0.356934,0.76416,0
54270,0.477539,0.251465,0.727051,0
54290,0.375,0.231445,0.723145,0
54310,0.304199,0.302734,0.763184,0
54330,0.165039,0.330566,0.750488,0
54350,0.0703125,0.244141,0.763184,0
54370,0.13623,0.211426,0.727051,0
54390,0.183105,0.220703,0.699219,0
54410,0.227539,0.266113,0.629395,0
54430,0.25,0.303711,0.628906,0
54450,0.17627,0.303223,0.709473,0
54470,0.0512695,0.297852,0.809082,0
54490,-0.0771484,0.38623,0.952148,0
54510,-0.184082,0.47998,0.910156,0
54530,-0.0527344,0.541992,0.913086,0
54550,0.0595703,0.535156,0.894531,0
54570,0.0576172,0.489258,0.831055,0
54590,0.0297852,0.453613,0.85498,0
54610,-0.126465,0.42334,0.890625,0
54630,-0.321289,0.374512,0.82959,0
54650,-0.296387,0.383301,0.865234,0
54670,-0.32959,0.446289,0.977539,0
54690,-0.538574,0.515625,0.966309,0
54710,-0.553711,0.540039,0.892578,0
54730,-0.366211,0.473633,0.90332,0
54750,-0.263184,0.441895,0.829102,0
54770,-0.366211,0.519043,0.822754,0
54790,-0.504883,0.661133,0.928223,0
54810,-0.495117,0.599121,0.790527,0
54830,-0.228516,0.530762,0.766113,0
54850,-0.105957,0.475098,0.746094,0
54870,-0.138184,0.538086,0.680664,0
54890,-0.201172,0.641602,0.660156,0
54910,-0.206543,0.598145,0.681641,0
54930,-0.230469,0.491211,0.699219,0
54950,-0.266602,0.425781,0.736328,0
54970,-0.257812,0.417969,0.736816,0
54990,-0.265625,0.438477,0.754395,0
55010,-0.302734,0.499512,0.72168,0
55030,-0.319336,0.539062,0.733887,0
55050,-0.308105,0.561523,0.70752,0
55070,-0.30127,0.539062,0.725586,0
55090,-0.283691,0.505371,0.754395,0
55110,-0.244629,0.48584,0.777344,0
55130,-0.253906,0.478516,0.811035,0
55150,-0.270508,0.445801,0.820801,0
55170,-0.279297,0.467285,0.807617,0
55190,-0.271484,0.485352,0.822754,0
55210,-0.276367,0.495605,0.806641,0
55230,-0.26416,0.5,0.822754,0
55250,-0.251465,0.467773,0.817871,0
55270,-0.253418,0.434082,0.794434,0
55290,-0.248535,0.417969,0.784668,0
55310,-0.235352,0.435059,0.76709,0
55330,-0.21582,0.476562,0.767578,0
55350,-0.231934,0.485352,0.750488,0
55370,-0.243164,0.474121,0.731445,0
55390,-0.219238,0.474609,0.732422,0
55410,-0.195312,0.462891,0.746582,0
55430,-0.203125,0.456055,0.788086,0
55450,-0.222656,0.419434,0.786621,0
55470,-0.220703,0.395996,0.796387,0
55490,-0.194824,0.409668,0.786621,0
55510,-0.191406,0.436523,0.768066,0
55530,-0.1875,0.435547,0.751465,0
55550,-0.171875,0.410156,0.776855,0
55570,-0.166992,0.376465,0.776367,0
55590,-0.17627,0.358887,0.769531,0
55610,-0.15918,0.341309,0.759766,0
55630,-0.140137,0.361816,0.744141,0
55650,-0.129883,0.393066,0.73584,0
55670,-0.111816,0.40918,0.741699,0
55690,-0.132812,0.395508,0.766113,0
55710,-0.146973,0.359863,0.786621,0
55730,-0.154297,0.335449,0.811035,0
55750,-0.162109,0.341797,0.821289,0
55770,-0.179688,0.395508,0.818848,0
55790,-0.257324,0.513184,0.890137,0
55810,-0.362305,0.541504,0.881836,0
55830,-0.278809,0.313965,0.860352,0
55850,-0.22168,0.149902,0.996582,0
55870,-0.268066,0.0556641,1.03369,0
55890,-0.263184,-0.0229492,1.0415,0
55910,-0.193359,0.0126953,1.05957,0
55930,-0.183594,0.116699,0.950195,0
55950,-0.165527,0.175781,0.916992,0
55970,-0.159668,0.211426,0.879883,0
55990,-0.135742,0.171875,0.895508,0
56010,-0.107422,0.143555,0.865723,0
56030,-0.123047,0.128418,0.89502,0
56050,-0.132324,0.195312,0.875977,0
56070,-0.12793,0.220215,0.85498,0
56090,-0.0834961,0.200684,0.854492,0
56110,-0.0625,0.132324,0.856934,0
56130,-0.0273438,0.133789,0.880371,0
56150,-0.0112305,0.164551,0.861816,0
56170,-0.0366211,0.174316,0.88916,0
56190,-0.0644531,0.146484,0.883789,0
56210,-0.0805664,0.0976562,0.913086,0
56230,-0.0625,0.0522461,0.927246,0
56250,-0.0390625,0.0483398,0.94043,0
56270,-0.0444336,0.0566406,0.952148,0
56290,-0.0478516,0.0883789,1,0
56300,-0.081543,0.105469,0.952637,0
56320,-0.0766602,0.0703125,0.994141,0
56340,-0.019043,0.138672,0.942383,0
56360,-0.0200195,0.129395,0.904297,0
56380,0.0327148,0.12207,0.90625,0
56400,0.09375,0.134277,0.862793,0
56420,0.17041,0.125977,0.829102,0
56440,0.208496,0.148438,0.708496,0
56460,0.189453,0.246582,0.678711,0
56480,0.174316,0.416992,0.621094,0
56500,0.156738,0.508301,0.663086,0
56520,0.213867,0.549316,0.631348,0
56520,0.257324,0.531738,0.653809,0
56540,0.205078,0.613281,0.606934,0
56560,0.20166,0.827637,0.648926,0
56580,0.279785,0.711426,0.668945,0
56620,0.205078,0.465332,0.725098,0
56620,0.307129,0.376465,0.755859,0
56640,0.315918,0.496582,0.731934,0
56660,0.305664,0.57373,0.775391,0
56700,0.349609,0.568359,0.849609,0
56720,0.225098,0.545898,0.837402,0
56740,0.11084,0.541992,0.833984,0
56760,0.0131836,0.442871,0.87207,0
56780,-0.0249023,0.388672,0.912109,0
56800,-0.0795898,0.356934,0.890625,0
56820,-0.14502,0.203613,0.975098,0
56840,-0.111328,0.0913086,1.05518,0
56860,0.0205078,-0.15918,1.11133,0
56880,0.0727539,-0.339355,1.23096,0
56900,0.112305,-0.378906,1.17676,0
56920,0.209961,-0.294922,1.21191,0
56940,0.299805,-0.11377,1.15625,0
56960,0.341309,0.0864258,1.07812,0
56980,0.379395,0.157715,1.09766,0
57000,0.519531,0.201172,1.00098,0
57020,0.561523,0.0908203,0.918457,0
57040,0.630859,0.0693359,0.78125,0
57060,0.671875,0.181152,0.659668,0
57080,0.647949,0.27002,0.527344,0
57100,0.588867,0.21875,0.407227,0
57120,0.606445,0.125,0.347656,0
57140,0.617188,0.154297,0.268066,0
57160,0.605469,0.126465,0.26416,0
57180,0.556152,0.0825195,0.26709,0
57200,0.534668,0.0224609,0.266602,0
57220,0.596191,0.0195312,0.299805,0
57240,0.61084,0.043457,0.315918,0
57260,0.57373,0.0136719,0.333984,0
57280,0.655762,-0.0654297,0.382324,0
57300,0.664551,-0.260254,0.474121,0
57320,0.672363,-0.273438,0.495117,0
57340,0.735352,-0.200195,0.546875,0
57360,0.78125,-0.11084,0.470215,0
57380,0.925293,-0.183594,0.457031,0
57400,0.874023,-0.253906,0.436523,0
57420,0.82959,-0.157715,0.402832,0
57440,0.767578,-0.147949,0.422363,0
57460,0.719238,-0.126953,0.439453,0
57480,0.743652,-0.155273,0.423828,0
57500,0.714844,-0.198242,0.437988,0
57520,0.739258,-0.158691,0.436035,0
57540,0.770508,-0.161133,0.398438,0
57560,0.986328,-0.125488,0.384766,0
57580,0.972656,-0.0239258,0.384766,0
57600,0.919434,-0.0307617,0.374512,0
57620,0.881348,-0.11377,0.404785,0
57640,0.819336,-0.188965,0.42627,0
57660,0.778809,-0.134766,0.388672,0
57680,0.808105,-0.0805664,0.355469,0
57700,0.80127,-0.0683594,0.337891,0
57720,0.691895,-0.159668,0.374512,0
57740,0.736328,-0.177246,0.425781,0
57760,0.77002,-0.147461,0.41748,0
57780,0.725586,-0.0654297,0.40332,0
57800,0.766602,0.0385742,0.430176,0
57820,0.740723,0.00927734,0.372559,0
57840,0.677734,-0.0717773,0.397949,0
57860,0.664062,0.0581055,0.370117,0
57880,0.64209,0.0600586,0.351562,0
57900,0.632812,-0.0141602,0.38623,0
57920,0.65332,-0.00927734,0.441406,0
57940,0.549805,0.0268555,0.458008,0
57960,0.474609,0.0698242,0.512695,0
57980,0.536621,0.0737305,0.588867,0
58000,0.584473,0.234375,0.683105,0
58020,0.614746,0.357422,0.714355,0
58040,0.462891,0.0791016,0.789062,0
58060,0.398926,0.125488,1.05469,0
58080,0.472656,0.0664062,0.914551,0
58100,0.36377,-0.228027,1.10254,0
58120,0.238281,-0.223633,1.22705,0
58140,0.228027,0.0507812,1.1333,0
58160,0.157227,0.314453,0.998047,0
58180,0.251953,0.435547,0.965332,0
58200,0.241699,0.38916,0.93457,0
58220,0.246582,0.340332,0.838379,0
58240,0.314941,0.46875,0.753418,0
58260,0.368164,0.608887,0.726074,0
58280,0.382324,0.680176,0.688477,0
58300,0.382324,0.555176,0.745117,0
58320,0.349121,0.516602,0.733398,0
58340,0.255859,0.532227,0.772949,0
58360,0.191895,0.524414,0.76416,0
58380,0.141113,0.477539,0.749023,0
58400,0.206055,0.520996,0.823242,0
58420,0.231934,0.442383,0.841797,0
58440,0.211426,0.177734,0.890625,0
58460,0.226074,0.081543,0.918945,0
58480,0.19043,0.167969,0.876465,0
58500,0.135742,0.178223,0.907227,0
58520,0.143066,0.132812,0.931152,0
58540,0.214844,0.0898438,0.95459,0
58560,0.246094,0.0756836,0.990723,0
58580,0.232422,0.132324,0.912109,0
58600,0.182617,0.220215,0.887207,0
58620,0.205566,0.312988,0.876953,0
58640,0.195312,0.333984,0.899414,0
58660,0.105957,0.314941,0.829102,0
58670,0.15332,0.24707,0.897461,0
58700,0.110352,0.316406,0.815918,0
58720,0.0703125,0.314941,0.800293,0
58740,0.107422,0.223633,0.813965,0
58760,0.14502,0.162109,0.78418,0
58780,0.15918,0.157715,0.857422,0
58800,0.180664,0.226562,0.868164,0
58820,0.181641,0.260742,0.856445,0
58840,0.155762,0.250977,0.814453,0
58860,0.131836,0.24707,0.852539,0
58880,0.118652,0.214355,0.927246,0
58900,0.135254,0.165039,0.922363,0
58920,0.152832,0.332031,0.851074,0
58930,-0.0151367,0.272949,0.835449,0
58950,-0.0336914,0.285645,0.848633,0
58970,-0.0498047,0.291992,0.896484,0
58990,-0.050293,0.123047,0.945312,0
59010,-0.0585938,0.0791016,0.987305,0
59030,-0.0454102,0.0878906,0.99707,0
59050,-0.0224609,0.188477,0.95752,0
59070,-0.0151367,0.217285,0.907715,0
59090,0.0385742,0.227051,0.857422,0
59110,0.0473633,0.212891,0.827637,0
59130,0.0507812,0.251465,0.824219,0
59150,0.0219727,0.253418,0.791504,0
59170,0.00195312,0.212402,0.830566,0
59190,0.0341797,0.207031,0.827148,0
59210,0.0517578,0.229004,0.808105,0
59230,0.0341797,0.223145,0.806152,0
59250,0.0854492,0.331543,0.823242,0
59270,0.0664062,0.471191,0.777832,0
59290,-0.0224609,0.447754,0.763672,0
59310,-0.081543,0.325684,0.876953,0
59330,-0.0996094,0.291016,0.901367,0
59350,-0.0976562,0.23877,0.905762,0
59370,-0.0678711,0.161621,0.966797,0
59390,-0.0581055,0.165527,1.02197,0
59410,-0.078125,0.102539,1.11182,0
59430,-0.0595703,0.137207,1.021,0
59450,-0.0571289,0.175781,1.01953,0
59470,-0.0786133,0.244141,0.970215,0
59490,-0.0883789,0.285645,0.936035,0
59510,-0.0952148,0.303711,0.938477,0
59530,-0.097168,0.262695,0.906738,0
59550,-0.0991211,0.268555,0.932129,0
59570,-0.133301,0.303223,0.947266,0
59590,-0.150391,0.384277,0.984375,0
59610,-0.115723,0.410156,0.930664,0
59630,0.00146484,0.317871,0.881348,0
59650,0.0546875,0.256348,0.899414,0
59670,0.0800781,0.31543,0.763672,0
59690,0.110352,0.210449,0.774414,0
59710,0.185059,0.166504,0.712402,0
59730,0.204102,0.162598,0.641113,0
59750,0.23584,0.119141,0.641602,0
59770,0.242676,0.0395508,0.657227,0
59790,0.289551,0.0200195,0.628418,0
59810,0.333008,-0.00488281,0.791992,0
59830,0.0712891,0.116211,0.859863,0
59840,-0.0351562,0.172363,0.87793,0
59860,-0.0117188,0.144531,0.994629,0
59880,-0.0610352,0.276367,1.03174,0
59900,-0.0664062,0.433105,1.04785,0
59920,-0.090332,0.470215,1.02197,0
59950,-0.0146484,0.379883,1.03369,0
59970,-0.0517578,0.404785,0.907227,0
59990,0.0854492,0.446777,0.821289,0
60010,0.171387,0.379395,0.876465,0
60030,0.155273,0.426758,0.780762,0
60050,0.11377,0.404785,0.810059,0
60070,0.0751953,0.38623,0.918457,0
60090,0.0668945,0.305664,0.866699,0
60110,0.00439453,0.117676,0.817383,0
60130,-0.0952148,0.0654297,0.832031,0
60150,-0.0834961,0.205566,0.834473,0
60170,-0.107422,0.211426,0.89502,0
60190,-0.127441,0.19043,0.998047,0
60210,-0.117188,0.112793,0.99707,0
60230,-0.151367,-0.00634766,1.09619,0
60250,-0.155762,0.0273438,1.10205,0
60270,-0.182617,0.105957,1.07764,0
60290,-0.193848,0.231445,0.96582,0
60310,-0.163574,0.284668,0.905762,0
60330,-0.101562,0.219238,0.850586,0
60350,-0.019043,0.20459,0.878418,0
60370,0.0410156,0.172852,0.783691,0
60390,0.0566406,0.183594,0.804688,0
60410,0.117188,0.274414,0.841797,0
60430,0.137695,0.322754,0.80957,0
60440,0.146484,0.32373,0.735352,0
60440,0.161133,0.293457,0.704102,0
60470,0.25,0.306641,0.654785,0
60500,0.349609,0.327637,0.680176,0
60520,0.338867,0.312988,0.718262,0
60540,0.477051,0.249023,0.799316,0
60560,0.424805,0.210449,0.809082,0
60580,0.135742,0.254395,0.638184,0
60600,0.352051,0.295898,0.79541,0
60620,0.0292969,0.337891,0.776855,0
60640,0.318848,0.276855,0.941406,0
60660,0.00439453,0.260742,0.575195,0
60680,-0.350586,0.150391,0.821777,0
60700,-0.104492,0.218262,1.31934,0
60720,0.315918,0.453125,1.36084,0
60740,0.339355,0.138672,1.16211,0
60770,0.438477,-0.155273,1.29053,0
60790,0.528809,-0.133301,1.22949,0
60810,0.522461,0.0185547,1.2002,0
60830,-0.0332031,0.00537109,1.09814,0
60840,-0.059082,0.156738,1.021,0
60840,-0.0605469,0.207031,0.981934,0
60870,-0.0776367,0.156738,0.970215,0
60900,-0.0981445,0.0893555,1.02246,0
60920,-0.178711,0.103027,0.936035,0
60940,-0.0107422,0.0664062,0.904785,0
60970,0.00976562,0.0878906,0.909668,0
60990,-0.012207,0.208496,0.72998,0
61010,-0.0419922,0.216797,0.693359,0
61030,-0.0136719,0.289551,0.67041,0
61050,-0.0722656,0.375,0.703613,0
61070,-0.182129,0.48584,0.665039,0
61080,-0.20459,0.42041,0.726074,0
61080,-0.22998,0.324219,0.752441,0
61100,-0.266113,0.254883,0.695801,0
61130,-0.230469,0.187988,0.608887,0
61160,-0.241211,0.219238,0.558594,0
61180,-0.121094,0.291504,0.655273,0
61200,-0.313477,0.561523,0.64209,0
61230,-0.630371,0.731934,0.581543,0
61250,-0.71582,0.529785,0.824707,0
61270,-0.793457,0.191895,0.902344,0
61290,-0.782227,0.0610352,0.895508,0
61310,-0.714844,0.212891,0.811523,0
61330,-0.65918,0.509277,0.755371,0
61350,-0.687988,0.555664,0.748535,0
61370,-0.83252,0.313477,0.72998,0
61390,-0.89502,0.0625,0.75,0
61410,-0.781738,0.0830078,0.763672,0
61430,-0.70752,0.199707,0.787109,0
61450,-0.694824,0.199219,0.786133,0
61470,-0.699219,0.0834961,0.794434,0
61490,-0.710449,-0.0244141,0.796875,0
61510,-0.748535,0.0141602,0.752441,0
61530,-0.76123,0.162598,0.708984,0
61550,-0.744141,0.231445,0.69043,0
61570,-0.723633,0.188965,0.679199,0
61580,-0.656738,0.0546875,0.729004,0
61600,-0.650391,-0.0195312,0.775391,0
61620,-0.683105,-0.027832,0.798828,0
61640,-0.667969,-0.0229492,0.838867,0
61660,-0.609375,0.046875,0.854004,0
61680,-0.502441,0.136719,0.864746,0
61700,-0.398438,0.16748,0.827637,0
61720,-0.327637,0.177246,0.817871,0
61740,-0.308105,0.128906,0.804688,0
61760,-0.335449,0.252441,0.815918,0
61780,-0.394043,0.538086,0.775879,0
61800,-0.296875,0.623047,0.733398,0
61820,-0.155273,0.542969,0.749023,0
61840,-0.143066,0.421387,0.687012,0
61860,-0.0952148,0.391602,0.663086,0
61880,-0.0214844,0.333984,0.717773,0
61900,0.015625,0.394531,0.678223,0
61920,0.0429688,0.335938,0.682617,0
61940,0.102539,0.324219,0.652344,0
61960,0.0615234,0.283691,0.664062,0
61980,0.0449219,0.293945,0.637207,0
62000,0.123047,0.305176,0.651855,0
62020,0.00341797,0.207031,0.743164,0
62040,-0.123535,0.22168,0.890625,0
62060,-0.10498,0.133789,1.00635,0
62080,-0.21875,0.0698242,1.03613,0
62100,-0.280762,-0.0205078,1.08154,0
62120,-0.262695,0.0307617,1.0542,0
62140,-0.301758,0.195801,0.955078,0
62160,-0.35791,0.309082,0.869141,0
62180,-0.321777,0.309082,0.822266,0
62200,-0.308105,0.233398,0.85498,0
62220,-0.464844,0.183105,0.875977,0
62240,-0.636719,0.183105,0.896973,0
62260,-0.918457,0.328125,0.884277,0
62280,-0.931641,0.394043,0.730469,0
62300,-0.57666,0.404785,0.670898,0
62320,-0.347168,0.394531,0.643066,0
62340,-0.215332,0.400879,0.626953,0
62360,-0.0839844,0.392578,0.631836,0
62380,-0.0419922,0.375977,0.665527,0
62400,-0.0429688,0.369629,0.651367,0
62420,-0.0332031,0.375488,0.686523,0
62440,-0.13916,0.35791,0.82666,0
62460,-0.312012,0.333496,0.893066,0
62480,-0.314941,0.338379,0.932129,0
62500,-0.216797,0.297852,0.922363,0
62520,-0.171387,0.319824,0.884766,0
62540,-0.114746,0.334473,0.833984,0
62560,-0.164551,0.439453,0.836914,0
62580,-0.178711,0.489258,0.731934,0
62600,-0.0380859,0.40625,0.804688,0
62620,-0.0239258,0.331543,0.81543,0
62640,-0.162598,0.3125,0.922852,0
62660,-0.254395,0.34082,1.00244,0
62680,-0.265137,0.348633,1.00391,0
62700,-0.292969,0.376953,1.04346,0
62720,-0.223145,0.481934,0.83252,0
62740,-0.187012,0.468262,0.846191,0
62760,-0.26416,0.493652,0.997559,0
62780,-0.140625,0.489746,1.06934,0
62800,0.0610352,0.304199,1.06836,0
62820,0.175293,0.13916,1.08057,0
62840,0.205566,0.186523,1.04541,0
62860,0.297363,0.236816,1.00537,0
62880,0.424316,0.172363,1.03564,0
62900,0.496094,0.172852,1.03467,0
62920,0.729004,0.109863,0.908691,0
62940,1.08594,-0.03125,0.792969,0
62960,0.86084,0.385742,0.910645,0
62980,0.504883,0.744141,0.89502,0
63000,0.627441,0.537109,1.10352,0
63020,0.602051,0.247559,1.06934,0
63040,0.515625,0.015625,0.876953,0
63060,0.521484,0.248047,0.837891,0
63080,0.47168,0.269531,0.762207,0
63100,0.591309,0.223633,0.72168,0
63120,0.541992,0.00585938,0.63916,0
63140,0.570312,-0.143555,0.599609,0
63160,0.66748,-0.21875,0.547363,0
63180,0.619629,-0.185059,0.495605,0
63200,0.555664,-0.102051,0.434082,0
63220,0.586914,-0.127441,0.386719,0
63240,0.599121,-0.197754,0.379395,0
63260,0.526855,-0.224609,0.334473,0
63280,0.464844,-0.262207,0.302734,0
63300,0.470215,-0.40625,0.281738,0
63320,0.48291,-0.470215,0.23584,0
63340,0.488281,-0.447754,0.158203,0
63360,0.521484,-0.35498,0.158203,0
63380,0.525391,-0.338379,-0.00244141,0
63400,0.591309,-0.495605,-0.159668,0
63420,0.530762,-0.450195,-0.0522461,0
63440,0.628418,-0.28125,-0.137695,0
63460,0.710449,-0.269043,-0.209961,0
63480,0.812988,-0.246582,-0.344727,0
63500,0.782715,-0.272461,-0.38623,0
63520,0.79541,-0.368164,-0.461914,0
63540,0.766113,-0.514648,-0.441895,0
63560,0.660645,-0.482422,-0.422852,0
63580,0.557617,-0.362793,-0.421875,0
63600,0.590332,-0.266602,-0.431152,0
63620,0.632812,-0.291016,-0.444336,0
63640,0.70752,-0.268066,-0.407227,0
63660,0.794922,-0.233398,-0.358398,0
63680,0.842773,-0.189453,-0.36377,0
63700,1.01367,-0.263184,-0.367676,0
63720,1.0542,-0.259766,-0.237793,0
63740,1.0376,-0.137207,-0.124512,0
63760,1.04443,-0.13623,-0.0600586,0
63780,1.07422,-0.186523,-0.00878906,0
63800,1.06299,-0.0976562,0.11084,0
63820,0.980957,-0.0258789,0.116211,0
63840,0.935059,-0.00732422,0.17627,0
63860,0.963867,0.0737305,0.0874023,0
63880,1.09863,0.0483398,0.0864258,0
63900,1.20117,-0.0161133,0.0908203,0
63920,1.18164,-0.172363,0.0976562,0
63940,1.20166,-0.217773,0.15918,0
63960,1.25244,0.0219727,0.25293,0
63980,1.12305,0.224609,0.0864258,0
64000,0.969238,0.0717773,0.143555,0
64020,0.834961,-0.0649414,0.183594,0
64040,0.786133,0.115234,0.0810547,0
64060,0.680664,0.0932617,0.0302734,0
64080,0.625488,0.0942383,0.233398,0
64100,0.588379,0.142578,0.31543,0
64120,0.592285,0.246094,0.33252,0
64140,0.535645,0.282227,0.352051,0
64160,0.527832,0.291504,0.52832,0
64180,0.543945,0.355469,0.608398,0
64200,0.473145,0.36377,0.581055,0
64210,0.487793,0.414062,0.757324,0
64230,0.588867,0.450195,0.734375,0
64250,0.407227,0.16748,0.925781,0
64270,0.166992,0.245117,1.10938,0
64290,-0.0595703,0.411621,1.35303,0
64310,0.268066,0.568359,1.3335,0
64330,0.593262,0.554688,1.22119,0
64350,0.531738,-0.267578,1.15039,0
64370,0.316895,-0.328125,1.15674,0
64390,0.312988,0.235352,0.96875,0
64410,0.314453,0.574219,0.845215,0
64430,0.243652,0.666992,0.723145,0
64450,0.321777,0.611328,0.723145,0
64470,0.384766,0.483398,0.719727,0
64490,0.369629,0.40918,0.647949,0
64510,0.316406,0.404297,0.638672,0
64530,0.28125,0.385254,0.581543,0
64550,0.3125,0.543457,0.540039,0
64570,0.353027,0.539062,0.469727,0
64590,0.423828,0.483398,0.44873,0
64610,0.486328,0.491211,0.397949,0
64630,0.547363,0.52832,0.391602,0
64650,0.633301,0.495117,0.382324,0
64670,0.644531,0.428223,0.436523,0
64690,0.669922,0.484863,0.465332,0
64710,0.665039,0.675781,0.431641,0
64730,0.338867,0.570312,0.422363,0
64750,0.0322266,0.748535,0.749023,0
64770,-0.227539,1.27783,0.76416,0
64790,-0.165527,1.1377,0.803711,0
64810,0.0722656,0.678711,0.913574,0
64830,-0.0463867,0.436035,0.907715,0
64850,-0.186035,0.472168,0.854492,0
64870,-0.213867,-0.202637,1.01416,0
64890,-0.0654297,-0.24707,0.904297,0
64910,-0.290527,0.268555,1.07812,0
64930,-0.530273,0.526855,1.02295,0
64950,-0.0234375,0.202148,1.08252,0
64970,0.15625,0.199707,0.890137,0
64990,0.0595703,0.432129,0.828613,0
65010,0.0146484,0.340332,0.888672,0
65030,0.00927734,0.415039,0.84082,0
65050,-0.110352,0.424805,0.894531,0
65070,-0.326172,0.390137,1.02588,0
65090,-0.493652,0.415039,1.01514,0
65110,-0.172852,0.265625,0.964355,0
65130,0.203125,0.250977,0.837891,0
65150,0.126953,0.338379,0.873047,0
65170,0.0849609,0.43457,0.80127,0
65190,0.298828,0.430664,0.658691,0
65210,0.418457,0.404785,0.525879,0
65230,0.512695,0.359375,0.456055,0
65250,0.59082,0.347656,0.376465,0
65270,0.674316,0.29248,0.384766,0
65290,0.581055,0.227051,0.532715,0
65310,0.425781,0.186035,0.679199,0
65330,0.133301,0.217285,0.75293,0
65350,0.0107422,0.461426,0.861328,0
65370,-0.0258789,0.607422,0.753418,0
65390,-0.208496,0.425293,0.819824,0
65410,-0.466309,0.159668,1.02197,0
65430,-0.641602,0.269043,1.18066,0
65450,-0.592285,0.155273,1.19336,0
65470,0.00634766,0.225586,1.06689,0
65490,0.15625,0.380859,0.965332,0
65510,0.166504,0.325195,0.915527,0
65530,0.212402,0.26123,0.834961,0
65550,0.117188,0.262695,0.866211,0
65570,0.115234,0.300781,0.848633,0
65590,0.283691,0.344238,0.8125,0
65610,0.200684,0.420898,0.786621,0
65630,0.170898,0.293945,0.779785,0
65650,0.180664,0.266602,0.801758,0
65670,0.286621,0.347656,0.73877,0
65690,0.391602,0.414062,0.707031,0
65710,0.393066,0.51123,0.666992,0
65730,0.403809,0.498047,0.586914,0
65750,0.50293,0.493652,0.525879,0
65770,0.534668,0.344727,0.507812,0
65790,0.480469,0.157227,0.583496,0
65810,0.355957,0.234375,0.675293,0
65830,0.17041,0.282227,0.740234,0
65850,0.019043,0.564941,0.797852,0
65870,-0.0317383,0.510742,0.804199,0
65890,0.015625,0.330566,0.780762,0
65910,-0.0449219,0.241211,0.857422,0
65930,-0.174805,0.445801,0.940918,0
65950,-0.280273,0.583984,1.01807,0
65970,-0.269531,0.481445,1.0166,0
65990,-0.0986328,0.375977,1.02539,0
66010,-0.0322266,0.296387,0.932129,0
66030,-0.00830078,0.324219,0.915527,0
66050,-0.0317383,0.287598,0.875,0
66070,0.027832,0.290039,0.883789,0
66090,0.0449219,0.302246,0.883789,0
66110,0.137207,0.351074,0.87207,0
66130,0.151367,0.444824,0.888184,0
66150,0.132324,0.439453,0.876953,0
66170,0.152344,0.382812,0.86377,0
66190,0.0830078,0.403809,0.82959,0
66210,0.0390625,0.385254,0.831543,0
66230,0.146484,0.390137,0.750488,0
66250,0.20752,0.40332,0.701172,0
66270,0.231934,0.40332,0.714844,0
66290,0.29834,0.411133,0.681152,0
66300,0.302246,0.435547,0.681641,0
66340,0.312012,0.462891,0.636719,0
66340,0.4375,0.412109,0.665527,0
66350,0.452637,0.303223,0.642578,0
66380,0.288086,0.265625,0.675293,0
66410,0.297363,0.245605,0.77002,0
66430,0.249512,0.185547,0.834961,0
66450,0.157715,0.280273,0.804199,0
66470,0.12207,0.361328,0.82666,0
66490,0.181641,0.332031,0.838867,0
66510,0.175293,0.369629,0.824707,0
66530,0.132812,0.315918,0.87793,0
66550,-0.0405273,0.351562,0.945312,0
66570,-0.243652,0.308105,0.964355,0
66590,-0.22168,0.287109,1.00781,0
66600,-0.191406,0.337402,0.984863,0
66620,-0.104492,0.319824,0.94043,0
66620,0.0400391,0.316895,0.902344,0
66640,0.0810547,0.340332,0.869629,0
66680,0.0522461,0.331543,0.830566,0
66710,0.0537109,0.347656,0.860352,0
66730,0.12207,0.436035,0.823242,0
66750,0.143555,0.443359,0.828613,0
66770,0.163574,0.378906,0.811035,0
66790,0.140137,0.337891,0.829102,0
66810,0.13623,0.361328,0.807617,0
66830,0.221191,0.398926,0.794434,0
66840,0.285156,0.413086,0.76709,0
66860,0.27832,0.397949,0.750488,0
66860,0.268066,0.356445,0.766113,0
66880,0.304688,0.325684,0.729492,0
66900,0.337402,0.349609,0.713867,0
66920,0.373535,0.408203,0.70166,0
66920,0.39209,0.473633,0.683594,0
66940,0.32373,0.470215,0.646973,0
66980,0.397949,0.440918,0.637695,0
67020,0.473633,0.339355,0.623047,0
67040,0.516113,0.280273,0.626465,0
67060,0.462891,0.288574,0.606445,0
67080,0.394043,0.370605,0.643066,0
67100,0.306641,0.347168,0.680176,0
67120,0.233398,0.334961,0.768066,0
67140,0.168457,0.306641,0.827637,0
67160,0.188965,0.413574,0.767578,0
67180,0.202148,0.363281,0.743652,0
67200,0.158203,0.228516,0.810059,0
67220,-0.0390625,0.331055,0.861328,0
67240,-0.172852,0.624023,0.876953,0
67260,-0.138184,0.541504,0.961914,0
67280,-0.178711,0.396484,0.98291,0
67300,-0.291992,0.265137,1.00049,0
67320,-0.151855,0.20166,0.984863,0
67340,0.0307617,0.232422,0.988281,0
67360,-0.0107422,0.338379,0.938477,0
67380,-0.11084,0.46582,0.868652,0
67400,-0.0244141,0.384766,0.880859,0
67420,0.0717773,0.335449,0.844238,0
67440,0.0791016,0.324707,0.84082,0
67460,0.0141602,0.353516,0.853027,0
67480,0.0493164,0.371094,0.858398,0
