Timestamp, Acceleration x, Acceleration y, Acceleration z
40,-0.114258,-0.919434,0.328125,
60,-0.120605,-0.91748,0.338867,
80,-0.120117,-0.920898,0.351563,
100,-0.12793,-0.90625,0.338867,
110,-0.128418,-0.906738,0.334473,
110,-0.14209,-0.916504,0.338379,
150,-0.149902,-0.911133,0.33252,
170,-0.151367,-0.905273,0.337402,
190,-0.147949,-0.897461,0.340332,
210,-0.147949,-0.908691,0.342285,
230,-0.143066,-0.911621,0.353516,
250,-0.149414,-0.88623,0.353027,
270,-0.151367,-0.875488,0.356934,
290,-0.125977,-0.867188,0.323242,
310,-0.149902,-0.873535,0.338379,
330,-0.149902,-0.873535,0.313477,
350,-0.166504,-0.882813,0.331055,
370,-0.158203,-0.910645,0.364746,
390,-0.147949,-0.90918,0.374512,
410,-0.165527,-0.891113,0.373047,
430,-0.163086,-0.902832,0.378418,
450,-0.166992,-0.904785,0.368652,
470,-0.166992,-0.887207,0.362793,
490,-0.169434,-0.881836,0.350586,
510,-0.172852,-0.881348,0.320801,
530,-0.17627,-0.890625,0.331543,
550,-0.15918,-0.898926,0.331543,
570,-0.150879,-0.918457,0.335449,
590,-0.162598,-0.90918,0.344238,
610,-0.15332,-0.891602,0.332031,
630,-0.164063,-0.918945,0.34375,
650,-0.160645,-0.926758,0.338867,
670,-0.162109,-0.911621,0.345215,
690,-0.168945,-0.901855,0.347168,
710,-0.162598,-0.902344,0.352539,
730,-0.159668,-0.90625,0.352051,
750,-0.166992,-0.894531,0.358398,
770,-0.166504,-0.896484,0.344238,
790,-0.165527,-0.913086,0.352051,
810,-0.159668,-0.912109,0.352051,
830,-0.164063,-0.903809,0.351563,
850,-0.165039,-0.913574,0.343262,
870,-0.162598,-0.897461,0.347168,
890,-0.162109,-0.901367,0.342285,
910,-0.164063,-0.906738,0.350098,
930,-0.161621,-0.888672,0.345215,
950,-0.160156,-0.901855,0.349121,
970,-0.165527,-0.901855,0.354492,
990,-0.164551,-0.897949,0.352539,
1010,-0.167969,-0.89209,0.363281,
1030,-0.161133,-0.893555,0.354492,
1050,-0.166992,-0.888672,0.353516,
1070,-0.159668,-0.887207,0.353516,
1090,-0.16748,-0.88916,0.356445,
1110,-0.149414,-0.900879,0.358887,
1130,-0.165527,-0.899414,0.360352,
1150,-0.162598,-0.89209,0.359375,
1170,-0.149414,-0.893066,0.356934,
1190,-0.171875,-0.894531,0.357422,
1210,-0.160645,-0.900879,0.360352,
1230,-0.160156,-0.893066,0.355957,
1250,-0.17041,-0.88916,0.358887,
1270,-0.163086,-0.900879,0.356934,
1290,-0.167969,-0.898438,0.361328,
1310,-0.158691,-0.900879,0.351074,
1330,-0.166992,-0.90918,0.359375,
1350,-0.154785,-0.899414,0.353027,
1370,-0.162109,-0.888184,0.355957,
1390,-0.153809,-0.88916,0.350586,
1410,-0.168457,-0.900391,0.360352,
1430,-0.15625,-0.903809,0.350098,
1450,-0.166992,-0.896973,0.351074,
1470,-0.150879,-0.897461,0.354004,
1490,-0.172852,-0.901855,0.350098,
1510,-0.160645,-0.898438,0.357422,
1530,-0.166016,-0.893066,0.353516,
1550,-0.164551,-0.90332,0.355957,
1570,-0.165527,-0.897949,0.349609,
1590,-0.162598,-0.894531,0.35791,
1610,-0.158691,-0.891113,0.356934,
1630,-0.162109,-0.894043,0.358398,
1650,-0.154785,-0.901855,0.355957,
1670,-0.166992,-0.902344,0.348633,
1690,-0.154785,-0.912598,0.353516,
1710,-0.154297,-0.898438,0.353027,
1730,-0.166992,-0.898926,0.358887,
1750,-0.157227,-0.898926,0.359863,
1770,-0.169922,-0.89209,0.352539,
1790,-0.161621,-0.900391,0.353027,
1810,-0.163086,-0.901367,0.352051,
1830,-0.160156,-0.896973,0.353027,
1850,-0.168457,-0.90332,0.351563,
1870,-0.158203,-0.905273,0.36084,
1890,-0.160156,-0.883301,0.35791,
1910,-0.156738,-0.892578,0.356934,
1930,-0.161133,-0.88623,0.36377,
1950,-0.155762,-0.891602,0.361816,
1970,-0.172852,-0.936523,0.362305,
1990,-0.177246,-0.929199,0.367676,
2010,-0.146484,-0.90625,0.373047,
2030,-0.139648,-0.880859,0.37207,
2050,-0.105957,-0.88916,0.40332,
2070,-0.169434,-0.89502,0.390625,
2090,-0.0893555,-0.800781,0.47998,
2110,-0.135254,-0.848633,0.40918,
2130,-0.214355,-1.06201,0.418457,
2150,-0.189453,-0.932129,0.331543,
2170,-0.179199,-0.917969,0.37207,
2190,-0.231445,-0.975586,0.352051,
2210,-0.234863,-0.872559,0.161133,
2230,-0.31543,-0.849609,0.0576172,
2250,-0.352539,-0.827637,0.138184,
2270,-0.333496,-0.805664,0.300293,
2290,-0.285156,-0.885254,0.424805,
2310,-0.109863,-0.962402,0.331055,
2330,-0.321289,-1.05029,0.400391,
2350,-0.245117,-1.00098,0.5,
2370,-0.189941,-1.01172,0.489258,
2390,-0.173828,-1.09131,0.422363,
2410,-0.165527,-1.05811,0.468262,
2430,-0.154297,-1.03662,0.470215,
2450,-0.133789,-0.989258,0.444336,
2470,-0.0961914,-0.97168,0.443359,
2490,-0.0253906,-0.94873,0.448242,
2510,-0.00292969,-0.918457,0.460449,
2530,-0.0102539,-0.917969,0.437988,
2550,0.0170898,-0.850586,0.434082,
2570,0.0078125,-0.825684,0.458984,
2590,-0.00244141,-0.76416,0.412598,
2610,0,-0.751953,0.328125,
2630,0.0253906,-0.708496,0.365234,
2650,0.0415039,-0.730957,0.383301,
2670,0.0625,-0.763184,0.360352,
2690,0.0732422,-0.759277,0.372559,
2700,0.100098,-0.774414,0.398926,
2720,0.136719,-0.775391,0.426758,
2740,0.133789,-0.786133,0.437988,
2760,0.117676,-0.76709,0.375488,
2780,0.122559,-0.784668,0.377441,
2800,0.120605,-0.784668,0.401367,
2820,0.131348,-0.777344,0.430176,
2840,0.122559,-0.78418,0.368652,
2860,0.121582,-0.801758,0.333496,
2880,0.137207,-0.802246,0.375977,
2900,0.16748,-0.815918,0.416504,
2920,0.148926,-0.804199,0.383789,
2940,0.123535,-0.806152,0.358398,
2960,0.138184,-0.821777,0.371582,
2980,0.137695,-0.85498,0.405762,
3000,0.114258,-0.854004,0.395996,
3020,0.0976563,-0.838867,0.372559,
3040,0.0976563,-0.842773,0.391602,
3060,0.0776367,-0.86084,0.393555,
3080,0.050293,-0.867676,0.384766,
3100,0.0532227,-0.830566,0.383789,
3120,0.0581055,-0.870605,0.411621,
3140,0.0361328,-0.897949,0.420898,
3160,0.0146484,-0.875977,0.403809,
3180,0.00195313,-0.889648,0.413574,
3200,0.0117188,-0.90625,0.414063,
3220,-0.00292969,-0.918945,0.394043,
3240,-0.0263672,-0.885742,0.393555,
3260,-0.0126953,-0.894531,0.392578,
3280,-0.0102539,-0.941895,0.390137,
3300,-0.0136719,-0.909668,0.393066,
3320,0.0375977,-0.908691,0.42041,
3340,0.0292969,-0.964355,0.394531,
3360,0.0297852,-0.950195,0.355957,
3380,0.0395508,-0.959961,0.401367,
3400,0.0239258,-0.97998,0.458984,
3420,0.0112305,-0.969727,0.433594,
3440,-0.0410156,-0.947754,0.408203,
3460,-0.0556641,-0.978027,0.427246,
3480,-0.0556641,-0.983887,0.439941,
3500,-0.0771484,-0.989746,0.494629,
3520,-0.0717773,-1.04102,0.547852,
3540,-0.0649414,-1.03662,0.538574,
3560,-0.0986328,-0.975098,0.496582,
3580,-0.0756836,-1.0083,0.523438,
3600,-0.0683594,-1.0249,0.557129,
3620,-0.0566406,-0.976563,0.554199,
3640,-0.0268555,-0.967285,0.555176,
3660,-0.050293,-0.941895,0.54248,
3680,-0.0170898,-0.893066,0.550781,
3700,0.0136719,-0.844727,0.570313,
3720,0.0258789,-0.845215,0.543457,
3740,0.0151367,-0.791992,0.494141,
3760,0.0170898,-0.770508,0.494141,
3780,0.0405273,-0.768555,0.515137,
3800,0.0576172,-0.741211,0.478027,
3820,0.0615234,-0.710938,0.461426,
3840,0.0712891,-0.706543,0.487305,
3860,0.0805664,-0.699219,0.504395,
3880,0.104492,-0.663086,0.474121,
3900,0.120605,-0.63916,0.45752,
3920,0.155762,-0.674805,0.460449,
3940,0.165039,-0.659668,0.418945,
3960,0.177246,-0.663086,0.358887,
3980,0.207031,-0.67334,0.414063,
4000,0.227051,-0.662598,0.468262,
4020,0.21582,-0.625488,0.428223,
4040,0.217285,-0.621094,0.359375,
4060,0.206543,-0.638672,0.394531,
4080,0.199219,-0.689453,0.390137,
4100,0.200684,-0.713867,0.32373,
4120,0.221191,-0.669434,0.327148,
4140,0.230469,-0.693359,0.362793,
4160,0.224609,-0.73877,0.375488,
4180,0.215332,-0.756348,0.294434,
4200,0.221191,-0.726074,0.290527,
4220,0.185059,-0.759766,0.328125,
4240,0.154297,-0.805176,0.380859,
4260,0.169434,-0.794434,0.376465,
4280,0.125,-0.818848,0.37207,
4300,0.0751953,-0.83252,0.378418,
4320,0.0717773,-0.853027,0.388672,
4340,0.0668945,-0.882324,0.405762,
4360,0.0605469,-0.95459,0.453613,
4380,0.0249023,-0.941895,0.427246,
4400,0.0317383,-0.9375,0.441406,
4420,-0.00878906,-0.950195,0.439453,
4440,-0.0507813,-0.931641,0.382813,
4460,-0.0249023,-0.946289,0.437012,
4480,-0.0327148,-0.981445,0.450684,
4500,-0.0625,-0.985352,0.455078,
4520,-0.0839844,-0.935547,0.445801,
4540,-0.0869141,-0.993652,0.44043,
4560,-0.0952148,-1.0542,0.438965,
4580,-0.09375,-1.0376,0.484375,
4600,-0.105469,-0.983887,0.45459,
4620,-0.0371094,-0.997559,0.4375,
4630,-0.0605469,-1.03857,0.461914,
4650,-0.074707,-0.958496,0.422852,
4670,-0.0522461,-0.939453,0.446777,
4690,-0.0458984,-1.00244,0.472656,
4710,-0.0561523,-0.974609,0.492188,
4730,-0.0488281,-0.97168,0.524414,
4750,-0.0292969,-0.995117,0.556641,
4770,-0.0444336,-1.01318,0.515137,
4790,-0.0947266,-0.975098,0.479004,
4810,-0.117188,-0.950684,0.523926,
4830,-0.127441,-0.947754,0.566406,
4850,-0.119141,-0.918457,0.552734,
4870,-0.0883789,-0.897461,0.556641,
4890,-0.078125,-0.893555,0.566895,
4910,-0.09375,-0.833496,0.545898,
4930,-0.0649414,-0.820801,0.559082,
4950,-0.043457,-0.814941,0.556641,
4970,-0.0185547,-0.799316,0.550781,
4990,-0.0117188,-0.776855,0.540527,
5010,-0.00927734,-0.721191,0.564453,
5030,0.0126953,-0.69873,0.554688,
5050,0.046875,-0.688965,0.541504,
5070,0.0488281,-0.676758,0.495117,
5090,0.0751953,-0.67041,0.481934,
5110,0.0947266,-0.682617,0.483398,
5130,0.120605,-0.65332,0.46875,
5150,0.133301,-0.631348,0.48877,
5170,0.138672,-0.631836,0.472656,
5190,0.158203,-0.621582,0.433594,
5210,0.164063,-0.603027,0.361816,
5230,0.181152,-0.623535,0.375,
5250,0.192383,-0.664551,0.415039,
5270,0.218262,-0.667969,0.444336,
5290,0.216797,-0.666016,0.393555,
5310,0.259277,-0.732422,0.425293,
5330,0.271973,-0.776367,0.453125,
5350,0.272461,-0.741211,0.447266,
5370,0.241211,-0.746582,0.365723,
5390,0.246094,-0.79248,0.306641,
5410,0.220215,-0.767578,0.286133,
5430,0.253906,-0.743652,0.289063,
5450,0.232422,-0.776855,0.320313,
5470,0.23584,-0.775879,0.349121,
5490,0.201172,-0.831055,0.325195,
5510,0.192871,-0.827148,0.366211,
5530,0.166992,-0.79834,0.344727,
5550,0.157715,-0.844238,0.374512,
5570,0.134277,-0.912109,0.369629,
5590,0.111816,-0.893066,0.346191,
5610,0.105469,-0.888672,0.393555,
5630,0.0766602,-0.969238,0.439453,
5650,0.0644531,-0.978516,0.415527,
5670,0.0195313,-0.932129,0.368652,
5690,0.0405273,-0.942871,0.410156,
5710,0.0405273,-1.02246,0.463867,
5730,0.00683594,-1.00391,0.421875,
5750,-0.0302734,-0.937988,0.436523,
5770,-0.0209961,-1.0415,0.435547,
5790,-0.0351563,-1.06982,0.462891,
5810,-0.0332031,-1.02051,0.473633,
5830,0.0151367,-1.04053,0.456543,
5850,-0.0571289,-1.06152,0.408691,
5870,-0.065918,-1.01025,0.366699,
5890,-0.0380859,-0.953125,0.412109,
5910,-0.0371094,-0.991699,0.47168,
5930,-0.0390625,-1.00977,0.459473,
5950,-0.0356445,-0.949707,0.42627,
5970,0,-0.975586,0.470215,
5990,-0.015625,-1.02148,0.463867,
6010,-0.0307617,-0.992188,0.487305,
6030,-0.015625,-0.942871,0.514648,
6050,-0.0209961,-0.9375,0.495117,
6070,-0.050293,-0.928711,0.495117,
6090,-0.0878906,-0.880859,0.461426,
6110,-0.0258789,-0.855469,0.581055,
6130,-0.0166016,-0.891602,0.570313,
6150,-0.0351563,-0.862305,0.488281,
6170,-0.0249023,-0.800781,0.475586,
6190,-0.00390625,-0.783203,0.536621,
6210,-0.0151367,-0.791504,0.517578,
6230,-0.00585938,-0.746582,0.502441,
6250,0.00878906,-0.724121,0.527832,
6270,0.0571289,-0.719238,0.588379,
6290,0.0654297,-0.723145,0.578613,
6310,0.0541992,-0.708496,0.472168,
6330,0.0517578,-0.730957,0.443359,
6350,0.0961914,-0.724609,0.500977,
6370,0.12207,-0.710938,0.523438,
6390,0.144531,-0.683105,0.509766,
6410,0.127441,-0.680176,0.462402,
6430,0.133789,-0.672852,0.453613,
6450,0.159668,-0.664551,0.428223,
6470,0.178223,-0.692871,0.403809,
6490,0.180664,-0.709473,0.35791,
6510,0.199707,-0.682129,0.360352,
6530,0.240723,-0.671387,0.412598,
6550,0.250488,-0.700684,0.413086,
6570,0.282715,-0.748047,0.354004,
6590,0.27832,-0.758789,0.334473,
6610,0.306152,-0.729492,0.36084,
6630,0.285645,-0.793945,0.382813,
6650,0.283203,-0.798828,0.34082,
6670,0.276855,-0.763184,0.312988,
6690,0.28418,-0.766602,0.363281,
6710,0.26123,-0.800293,0.376465,
6730,0.244141,-0.829102,0.321289,
6750,0.213379,-0.827148,0.308594,
6770,0.197754,-0.829102,0.35498,
6790,0.179199,-0.812012,0.385742,
6810,0.148438,-0.851074,0.37207,
6830,0.131836,-0.878906,0.408203,
6850,0.111328,-0.907227,0.395996,
6870,0.0703125,-0.868652,0.375,
6890,0.0371094,-0.898926,0.417969,
6910,0.0405273,-0.952637,0.448242,
6930,0.0336914,-0.937988,0.435547,
6950,-0.00439453,-0.918945,0.414551,
6970,-0.0146484,-0.94043,0.412598,
6990,-0.0424805,-0.967773,0.424316,
7010,-0.0454102,-0.936523,0.471191,
7030,-0.0161133,-0.963379,0.509277,
7050,-0.0429688,-1.01611,0.470215,
7070,-0.078125,-1.0083,0.458008,
7090,-0.0874023,-0.96582,0.455566,
7110,-0.0678711,-0.966797,0.459961,
7130,-0.0883789,-0.992676,0.478027,
7150,-0.0913086,-0.970215,0.458984,
7170,-0.0874023,-0.972656,0.474121,
7190,-0.0859375,-0.969238,0.479492,
7210,-0.0742188,-0.937988,0.500488,
7230,-0.0712891,-0.945313,0.486816,
7250,-0.0571289,-0.946289,0.442871,
7270,-0.0595703,-0.935547,0.48877,
7290,-0.0625,-0.943359,0.533203,
7310,-0.0419922,-0.918457,0.520508,
7330,-0.0517578,-0.902344,0.495605,
7350,-0.0390625,-0.90625,0.501953,
7370,-0.0292969,-0.879395,0.540039,
7390,-0.00488281,-0.858398,0.529785,
7410,-0.0185547,-0.847656,0.523926,
7430,-0.0371094,-0.806152,0.507813,
7450,-0.0332031,-0.80127,0.501953,
7470,-0.0126953,-0.773438,0.525391,
7490,0.0151367,-0.773926,0.537109,
7510,0.0332031,-0.779785,0.54248,
7530,0.0175781,-0.790039,0.505371,
7550,0.0136719,-0.748535,0.467773,
7570,0.0595703,-0.737793,0.51123,
7590,0.0742188,-0.758789,0.547852,
7610,0.0810547,-0.708008,0.491211,
7630,0.105957,-0.702148,0.46875,
7650,0.110352,-0.722168,0.496094,
7670,0.138184,-0.742188,0.436523,
7690,0.165527,-0.720703,0.40625,
7710,0.183594,-0.703125,0.419434,
7730,0.190918,-0.727051,0.419434,
7750,0.221191,-0.729492,0.381348,
7770,0.214844,-0.725586,0.354492,
7790,0.233887,-0.708008,0.385742,
7810,0.26416,-0.723633,0.416016,
7830,0.287109,-0.758789,0.38623,
7850,0.288574,-0.731445,0.385254,
7870,0.279297,-0.725586,0.380371,
7890,0.289551,-0.756836,0.402832,
7910,0.279785,-0.766113,0.263672,
7930,0.233887,-0.757813,0.253906,
7950,0.228027,-0.752441,0.267578,
7960,0.230469,-0.793945,0.330078,
7980,0.235352,-0.823242,0.302734,
8000,0.205078,-0.82666,0.324219,
8020,0.214355,-0.870605,0.393555,
8040,0.21875,-0.993652,0.40918,
8060,0.197754,-0.92334,0.359863,
8080,0.125977,-0.888184,0.305664,
8100,0.107422,-0.908203,0.358887,
8120,0.0917969,-0.932617,0.366699,
8140,0.0498047,-0.879883,0.344238,
8160,0.0390625,-0.904785,0.410645,
8180,0.0141602,-0.974609,0.411621,
8200,-0.0292969,-0.943848,0.382813,
8220,-0.0688477,-0.912598,0.407715,
8240,-0.0292969,-0.944824,0.458008,
8260,-0.0239258,-0.998535,0.463379,
8280,-0.0620117,-0.951172,0.407227,
8300,-0.050293,-0.923828,0.395508,
8320,-0.0610352,-0.922363,0.452148,
8340,-0.0209961,-0.950195,0.523438,
8360,-0.0385742,-0.987793,0.499023,
8380,-0.0952148,-0.92334,0.42041,
8400,-0.109863,-0.876953,0.447754,
8420,-0.107422,-0.927246,0.485352,
8440,-0.119141,-0.938477,0.496582,
8460,-0.119141,-0.910156,0.519531,
8480,-0.124023,-0.919434,0.488281,
8500,-0.120605,-0.921875,0.533203,
8520,-0.0922852,-0.939941,0.577637,
8540,-0.0917969,-0.90332,0.555176,
8560,-0.0463867,-0.940918,0.539063,
8580,-0.0405273,-0.978027,0.540039,
8600,-0.0561523,-0.88623,0.561523,
8620,0.0117188,-0.882324,0.612305,
8640,0.00341797,-0.912598,0.599121,
8660,-0.0322266,-0.878906,0.499512,
8680,-0.012207,-0.847168,0.473145,
8700,0.0258789,-0.828613,0.524414,
8720,0.0419922,-0.830078,0.563477,
8740,0.0493164,-0.798828,0.547852,
8760,0.0395508,-0.760742,0.491211,
8780,0.0727539,-0.745605,0.497559,
8800,0.101074,-0.73877,0.503418,
8820,0.0942383,-0.710449,0.477051,
8840,0.0722656,-0.675781,0.462402,
8860,0.11377,-0.674805,0.48877,
8880,0.103516,-0.675781,0.473633,
8900,0.0874023,-0.674805,0.428711,
8920,0.0869141,-0.65332,0.390137,
8940,0.0932617,-0.661133,0.356445,
8960,0.0878906,-0.658203,0.342285,
8980,0.0991211,-0.626465,0.353516,
9000,0.135254,-0.608398,0.40625,
9020,0.180664,-0.691895,0.431152,
9040,0.212891,-0.726074,0.430664,
9060,0.223633,-0.708984,0.399414,
9080,0.226563,-0.741699,0.38623,
9100,0.262695,-0.835938,0.339844,
9120,0.240723,-0.828125,0.317871,
9140,0.251465,-0.759277,0.349121,
9160,0.217285,-0.868164,0.358887,
9180,0.224121,-0.892578,0.374512,
9200,0.208984,-0.882324,0.375488,
9220,0.181152,-0.871094,0.343262,
9240,0.190918,-0.893066,0.319824,
9260,0.183594,-0.952637,0.308105,
9280,0.160645,-0.913574,0.334473,
9300,0.148438,-0.897461,0.353027,
9320,0.0991211,-0.93457,0.341797,
9340,0.0893555,-0.921387,0.32959,
9360,0.0620117,-0.915527,0.371582,
9380,0.0507813,-0.95459,0.365723,
9400,0.0175781,-0.971191,0.368164,
9420,-0.00585938,-0.984863,0.360352,
9440,0.00244141,-0.976074,0.40332,
9460,-0.0185547,-0.98877,0.416504,
9480,-0.046875,-0.98584,0.411621,
9500,-0.0546875,-0.996582,0.410156,
9520,-0.0537109,-1.01563,0.39502,
9540,-0.0712891,-0.951172,0.374023,
9560,-0.0771484,-0.913086,0.371582,
9580,-0.0732422,-0.967773,0.409668,
9600,-0.0654297,-0.987793,0.473145,
9620,-0.110352,-0.961426,0.418945,
9640,-0.125977,-0.949219,0.402344,
9660,-0.148926,-0.939453,0.436523,
9680,-0.128906,-0.931152,0.439453,
9700,-0.131348,-0.955078,0.45459,
9720,-0.125,-0.94873,0.487305,
9740,-0.0996094,-0.994141,0.470703,
9760,-0.105957,-0.947266,0.520508,
9780,-0.074707,-0.939941,0.543945,
9800,-0.0566406,-0.978516,0.560547,
9820,-0.065918,-0.950684,0.541504,
9840,-0.0708008,-0.925293,0.491699,
9860,-0.0473633,-0.90918,0.513184,
9870,-0.0424805,-0.924316,0.536621,
9890,-0.019043,-0.937012,0.543457,
9910,0.00439453,-0.890625,0.529297,
9930,0.015625,-0.858887,0.504395,
9950,0.00341797,-0.828613,0.540527,
9970,0.0219727,-0.816406,0.515137,
9990,0.0214844,-0.795898,0.463379,
10010,0.0273438,-0.78418,0.464355,
10030,0.0883789,-0.766602,0.468262,
10050,0.112305,-0.739258,0.509277,
10070,0.0878906,-0.720703,0.462402,
10090,0.0981445,-0.685059,0.414063,
10110,0.0927734,-0.650391,0.343262,
10130,0.109863,-0.651855,0.363281,
10150,0.161133,-0.698242,0.416016,
10170,0.172852,-0.660645,0.374512,
10190,0.197754,-0.641113,0.379883,
10210,0.18457,-0.6875,0.38916,
10230,0.225098,-0.754883,0.376953,
10250,0.254395,-0.746094,0.443848,
10270,0.247559,-0.709473,0.458496,
10290,0.241699,-0.705566,0.467773,
10310,0.222656,-0.683594,0.400391,
10330,0.181641,-0.726074,0.353027,
10350,0.148438,-0.740234,0.250488,
10370,0.17627,-0.751953,0.303711,
10390,0.186035,-0.728027,0.38623,
10410,0.148926,-0.725586,0.398438,
10430,0.148926,-0.816895,0.362793,
10450,0.128906,-0.829102,0.379883,
10470,0.105957,-0.83252,0.362305,
10490,0.110352,-0.883789,0.444824,
10510,0.101074,-0.863281,0.468262,
10530,0.0668945,-0.901855,0.395508,
10550,0.0229492,-0.941406,0.391602,
10570,0.0371094,-0.952637,0.472168,
10590,0.0332031,-0.946289,0.502441,
10610,0.0151367,-0.939453,0.467773,
10630,-0.0214844,-0.949219,0.384766,
10650,-0.0229492,-0.937012,0.424805,
10670,0.00585938,-0.943359,0.427734,
10690,-0.00683594,-0.953613,0.449219,
10710,-0.0273438,-0.937988,0.427734,
10730,-0.00683594,-0.949707,0.469238,
10750,-0.0263672,-0.949707,0.466797,
10770,-0.0175781,-0.945801,0.422363,
10790,-0.0561523,-0.944824,0.384766,
10810,-0.0864258,-0.946289,0.399902,
10830,-0.108398,-0.967773,0.462402,
10850,-0.108398,-0.951172,0.472656,
10870,-0.122559,-0.940918,0.466797,
10890,-0.125,-0.937012,0.492676,
10910,-0.106934,-0.963379,0.492188,
10930,-0.116699,-0.953125,0.483887,
10950,-0.121094,-0.93457,0.473145,
10970,-0.130859,-0.945313,0.514648,
10990,-0.13623,-0.929199,0.535156,
11010,-0.136719,-0.900879,0.544922,
11030,-0.15625,-0.893555,0.5,
11050,-0.111328,-0.885742,0.526855,
11070,-0.065918,-0.90332,0.623047,
11090,-0.102539,-0.913574,0.544922,
11110,-0.104004,-0.86084,0.506836,
11130,-0.0629883,-0.832031,0.53125,
11150,-0.00439453,-0.817871,0.594727,
11170,-0.019043,-0.849609,0.650391,
11190,-0.00195313,-0.855469,0.578613,
11210,0.00537109,-0.766602,0.502441,
11230,0.0170898,-0.746582,0.522949,
11250,0.019043,-0.793457,0.506836,
11270,0.0493164,-0.796387,0.492188,
11290,0.0634766,-0.708496,0.486328,
11310,0.0849609,-0.709473,0.483398,
11330,0.0981445,-0.715332,0.445313,
11350,0.116211,-0.710938,0.408203,
11370,0.126465,-0.704102,0.379395,
11390,0.159668,-0.654297,0.378906,
11410,0.175781,-0.680664,0.35791,
11430,0.208496,-0.69873,0.369141,
11450,0.243652,-0.675293,0.401855,
11470,0.264648,-0.712891,0.39502,
11490,0.26123,-0.760742,0.34375,
11510,0.254395,-0.725586,0.303223,
11530,0.265625,-0.710449,0.352051,
11550,0.257813,-0.730957,0.404785,
11570,0.260254,-0.74707,0.381836,
11590,0.229004,-0.702637,0.305176,
11610,0.211914,-0.724121,0.286621,
11630,0.224121,-0.80127,0.34082,
11650,0.211914,-0.829102,0.322266,
11670,0.177734,-0.803223,0.324707,
11690,0.1875,-0.870117,0.359375,
11710,0.154297,-0.901855,0.344727,
11730,0.139648,-0.888184,0.347656,
11750,0.0893555,-0.92041,0.376953,
11770,0.0698242,-0.937012,0.416016,
11790,0.0639648,-0.963867,0.409668,
11810,0.0170898,-0.938477,0.355469,
11830,-0.000488281,-0.917969,0.39209,
11850,0.00488281,-0.96875,0.457031,
11870,0.00439453,-0.972656,0.449707,
11890,-0.0351563,-0.909668,0.37207,
11910,-0.0131836,-0.949219,0.405273,
11930,0.0527344,-1.03223,0.404785,
11950,0.00195313,-1.03027,0.32959,
11970,-0.0400391,-0.966797,0.385742,
11990,-0.0703125,-1.00928,0.461914,
12010,-0.0649414,-1.04736,0.491699,
12030,-0.0893555,-1.03174,0.444336,
12050,-0.0883789,-1,0.458008,
12070,-0.0776367,-1.04346,0.479492,
12090,-0.081543,-1.01123,0.398926,
12110,-0.090332,-0.944336,0.4375,
12130,-0.0668945,-0.996582,0.490234,
12150,-0.0703125,-1.00049,0.464844,
12170,-0.119141,-0.940918,0.397461,
12190,-0.11084,-0.909668,0.48291,
12210,-0.0791016,-0.975586,0.53418,
12230,-0.101563,-0.930664,0.492676,
12250,-0.123047,-0.883789,0.469238,
12270,-0.0595703,-0.903809,0.527344,
12290,-0.065918,-0.9375,0.557617,
12310,-0.0742188,-0.89502,0.501953,
12330,-0.0356445,-0.850586,0.482422,
12350,-0.0292969,-0.833984,0.567871,
12370,-0.0561523,-0.838379,0.524902,
12390,-0.0234375,-0.793945,0.456543,
12410,-0.0244141,-0.759277,0.442383,
12430,0.0302734,-0.791504,0.459961,
12450,0.0649414,-0.776855,0.498535,
12470,0.0693359,-0.719727,0.438965,
12490,0.059082,-0.715332,0.385742,
12510,0.0844727,-0.708984,0.390137,
12530,0.119629,-0.720215,0.398438,
12550,0.132324,-0.702148,0.379883,
12570,0.152344,-0.693359,0.321289,
12590,0.174316,-0.710938,0.311035,
12610,0.21582,-0.736816,0.366699,
12630,0.253906,-0.748535,0.400879,
12650,0.282227,-0.751465,0.321289,
12670,0.267578,-0.742188,0.244141,
12690,0.324707,-0.751465,0.305664,
12710,0.319336,-0.789551,0.304688,
12730,0.314453,-0.78125,0.281738,
12750,0.282715,-0.727539,0.243652,
12770,0.306152,-0.77002,0.248047,
12790,0.268066,-0.80127,0.305176,
12810,0.231445,-0.756836,0.307129,
12830,0.206543,-0.809082,0.232422,
12850,0.224121,-0.887695,0.250977,
12870,0.202637,-0.918457,0.279785,
12890,0.170898,-0.913086,0.240723,
12910,0.128906,-0.928223,0.217773,
12930,0.137695,-0.986328,0.287598,
12950,0.140137,-1.01953,0.369141,
12970,0.110352,-1.03418,0.366211,
12990,0.0595703,-1.03809,0.372559,
13010,0.0327148,-1.02637,0.346191,
13030,0.0336914,-0.999512,0.285156,
13050,0.0244141,-0.997559,0.312012,
13070,0.043457,-1.02832,0.335449,
13090,0.0439453,-0.996582,0.355957,
13110,0.0439453,-0.983398,0.397461,
13130,0.0737305,-0.999023,0.436523,
13150,0.0605469,-1.01904,0.388184,
13170,-0.0244141,-1.02002,0.321289,
13190,-0.0112305,-1.00684,0.400391,
13200,-0.043457,-1.04248,0.415039,
13220,-0.015625,-0.999023,0.456543,
13240,-0.0673828,-1.08545,0.40918,
13260,-0.114258,-1.06299,0.327637,
13280,-0.0224609,-1.00488,0.535645,
13300,0.00146484,-1.05469,0.580566,
13320,-0.043457,-1.02832,0.502441,
13340,-0.0766602,-0.967285,0.473145,
13360,-0.0244141,-0.993164,0.563477,
13380,-0.0214844,-1.00146,0.606445,
13400,-0.0644531,-0.936523,0.510254,
13420,-0.0361328,-0.912109,0.466309,
13440,-0.046875,-0.864746,0.487793,
13460,-0.0292969,-0.854004,0.519043,
13480,-0.0380859,-0.78418,0.49707,
13500,-0.0366211,-0.740234,0.406738,
13520,0.00830078,-0.724609,0.416992,
13540,0.0332031,-0.720215,0.460449,
13560,0.0527344,-0.665527,0.449707,
13580,0.0791016,-0.643066,0.339355,
13600,0.0913086,-0.691406,0.285645,
13620,0.0913086,-0.716797,0.302246,
13640,0.164063,-0.69873,0.428711,
13660,0.17334,-0.665039,0.491699,
13680,0.175781,-0.64209,0.46875,
13700,0.189453,-0.718262,0.328125,
13720,0.178223,-0.767578,0.229492,
13740,0.22168,-0.684082,0.269531,
13760,0.260254,-0.6875,0.370117,
13780,0.264648,-0.726074,0.374023,
13800,0.238281,-0.745117,0.299805,
13820,0.260254,-0.782227,0.243652,
13840,0.272461,-0.754883,0.314941,
13860,0.274902,-0.76709,0.402344,
13880,0.260254,-0.831543,0.433105,
13900,0.245117,-0.868652,0.357422,
13920,0.175293,-0.874512,0.272949,
13940,0.166504,-0.899414,0.240234,
13960,0.169922,-0.909668,0.250488,
13980,0.153809,-0.925293,0.276367,
14000,0.121582,-0.907227,0.307617,
14020,0.10498,-0.92041,0.345703,
14040,0.102539,-0.945801,0.32373,
14060,0.0566406,-0.92627,0.303711,
14080,0.0683594,-0.918945,0.34668,
14100,0.0742188,-0.99707,0.36084,
14120,0.00537109,-0.978516,0.286133,
14140,0.00390625,-0.952148,0.266113,
14160,0.0478516,-0.974609,0.365234,
14180,0.00244141,-1.03662,0.38623,
14200,-0.0214844,-0.998535,0.335449,
14220,-0.0595703,-1,0.34082,
14240,-0.0649414,-1.02197,0.413086,
14260,-0.0463867,-1.02539,0.411621,
14280,-0.0776367,-0.992188,0.401855,
14300,-0.0839844,-1.00098,0.380371,
14320,-0.0595703,-1.104,0.358398,
14340,-0.0727539,-1.03516,0.358398,
14360,-0.0825195,-0.995117,0.366211,
14380,-0.0893555,-1.08496,0.375977,
14400,-0.101563,-1.07178,0.373047,
14420,-0.0761719,-1.01074,0.400879,
14440,-0.0551758,-1.07275,0.403809,
14460,-0.0703125,-1.0874,0.394043,
14480,-0.0454102,-1.00928,0.433594,
14500,0.0209961,-1.07178,0.405762,
14520,-0.0283203,-1.04736,0.394531,
14540,-0.0751953,-0.988281,0.455566,
14560,-0.0268555,-0.969727,0.530273,
14580,-0.0117188,-0.95459,0.463379,
14600,-0.0375977,-0.936035,0.419434,
14620,-0.0185547,-0.923828,0.442383,
14640,-0.000488281,-0.873535,0.513184,
14660,0.0219727,-0.819336,0.476563,
14680,-0.00976563,-0.815918,0.432129,
14700,-0.0175781,-0.756836,0.391113,
14720,0.0375977,-0.727051,0.421875,
14740,0.0439453,-0.73877,0.375977,
14760,0.0463867,-0.719238,0.353516,
14780,0.0595703,-0.679688,0.362793,
14800,0.131348,-0.691895,0.357422,
14820,0.130859,-0.696777,0.334961,
14840,0.126465,-0.677734,0.257324,
14860,0.150391,-0.724609,0.26709,
14880,0.171387,-0.744629,0.273438,
14900,0.213379,-0.716797,0.26709,
14920,0.243652,-0.760742,0.230469,
14940,0.262695,-0.773438,0.260254,
14960,0.276855,-0.78418,0.280762,
14980,0.252441,-0.772461,0.294922,
15000,0.268555,-0.78125,0.262695,
15020,0.285156,-0.853027,0.248535,
15040,0.253418,-0.834961,0.197266,
15060,0.258789,-0.780273,0.268555,
15080,0.24707,-0.898438,0.238281,
15100,0.210449,-0.87793,0.221191,
15120,0.168945,-0.888184,0.203125,
15130,0.15918,-0.907227,0.246094,
15150,0.161621,-0.917969,0.294922,
15170,0.140625,-0.955566,0.33252,
15190,0.12207,-0.98291,0.342285,
15210,0.0722656,-0.940918,0.247559,
15230,0.00195313,-0.949219,0.217285,
15250,0.0273438,-1.0415,0.308105,
15270,0.0683594,-1.1499,0.32666,
15290,0.111816,-1.1123,0.294434,
15310,0.0625,-1.07764,0.342285,
15330,0.0561523,-1.07227,0.39209,
15350,0.0693359,-1.14209,0.304199,
15370,0.0380859,-1.07568,0.264648,
15390,0.0893555,-1.06738,0.355957,
15410,0.0341797,-1.09814,0.327148,
15430,-0.00976563,-1.08301,0.334473,
15450,0.0419922,-1.07715,0.397461,
15470,0.0112305,-1.06934,0.422363,
15490,-0.0571289,-1.09912,0.373047,
15510,-0.0610352,-1.07959,0.326172,
15530,-0.074707,-1.06445,0.365234,
15550,-0.0917969,-1.00439,0.407227,
15570,-0.0644531,-0.99707,0.412109,
15590,-0.113281,-1.02393,0.382324,
15610,-0.103027,-0.996582,0.395996,
15630,-0.0727539,-0.951172,0.460938,
15650,-0.0405273,-0.949707,0.521484,
15670,-0.0327148,-1.01758,0.461426,
15690,-0.0200195,-0.961426,0.399902,
15710,-0.0209961,-0.852051,0.393555,
15730,-0.00244141,-0.84082,0.472656,
15750,0.0175781,-0.88623,0.45752,
15770,0.0395508,-0.807617,0.378906,
15790,0.0820313,-0.755859,0.367676,
15810,0.0571289,-0.78418,0.395996,
15830,0.101563,-0.798828,0.379883,
15850,0.137695,-0.723145,0.360352,
15870,0.154297,-0.686523,0.377441,
15890,0.154785,-0.706055,0.358398,
15910,0.192383,-0.708496,0.351074,
15930,0.195801,-0.655762,0.314453,
15950,0.188965,-0.641113,0.283691,
15970,0.183594,-0.685059,0.257324,
15990,0.177734,-0.692383,0.189941,
16010,0.228516,-0.681641,0.166016,
16030,0.287109,-0.669434,0.276367,
16050,0.317871,-0.682617,0.375977,
16070,0.312012,-0.718262,0.288574,
16090,0.30957,-0.757813,0.184082,
16110,0.31543,-0.786133,0.261719,
16130,0.333496,-0.783203,0.318848,
16150,0.317383,-0.806641,0.271973,
16170,0.28125,-0.851563,0.269043,
16190,0.247559,-0.884277,0.269531,
16210,0.271973,-0.886719,0.302246,
16230,0.26123,-0.908203,0.295898,
16250,0.20459,-0.938965,0.255371,
16270,0.179688,-0.935059,0.297363,
16290,0.191895,-0.98584,0.314453,
16310,0.200684,-0.999512,0.285156,
16330,0.175781,-1.00586,0.269531,
16350,0.118652,-0.980469,0.291992,
16370,0.104004,-1.0166,0.30957,
16390,0.0888672,-1.01709,0.316406,
16410,0.0415039,-1.02979,0.291016,
16430,0.0610352,-1.08057,0.345215,
16450,0.0585938,-1.09473,0.403809,
16470,0.0366211,-1.08105,0.419922,
16490,0.0322266,-1.08594,0.401855,
16510,-0.00439453,-1.10742,0.36377,
16530,-0.00341797,-1.07422,0.295898,
16550,0.0180664,-1.0708,0.376953,
16570,0.00830078,-1.05664,0.407227,
16590,-0.0209961,-0.996582,0.382813,
16610,-0.0649414,-1.02246,0.359863,
16630,-0.0727539,-1.02637,0.421387,
16650,-0.0288086,-1.01025,0.443359,
16670,-0.0649414,-0.97998,0.395996,
16690,-0.0771484,-0.94873,0.442871,
16710,-0.0722656,-0.990234,0.478027,
16730,-0.0771484,-0.956543,0.47168,
16750,-0.0883789,-0.924805,0.466797,
16770,-0.0986328,-0.89502,0.508301,
16790,-0.0478516,-0.901367,0.525879,
16810,-0.0561523,-0.947754,0.45166,
16830,-0.0869141,-0.864746,0.444336,
16850,-0.0234375,-0.848633,0.573242,
16870,0.0532227,-0.871094,0.62793,
16890,0.0688477,-0.828613,0.534668,
16910,-0.015625,-0.786133,0.44043,
16930,-0.0175781,-0.770996,0.435547,
16950,0.0385742,-0.751465,0.471191,
16970,0.0458984,-0.713379,0.452637,
16990,0.0517578,-0.67041,0.423828,
17010,0.0678711,-0.71582,0.372559,
17030,0.090332,-0.682617,0.343262,
17050,0.143555,-0.648438,0.35498,
17070,0.175293,-0.652832,0.42334,
17090,0.216309,-0.674805,0.438477,
17110,0.227051,-0.635254,0.362305,
17130,0.225586,-0.650879,0.268066,
17150,0.189941,-0.705078,0.271484,
17170,0.256348,-0.693848,0.328125,
17190,0.288086,-0.671387,0.376953,
17210,0.238281,-0.684082,0.356445,
17230,0.240234,-0.699219,0.287598,
17250,0.263672,-0.734863,0.289551,
17270,0.265625,-0.717285,0.348633,
17290,0.287598,-0.742676,0.368164,
17310,0.259277,-0.771973,0.318359,
17330,0.257813,-0.752441,0.287109,
17350,0.226563,-0.825195,0.318359,
17370,0.220215,-0.885254,0.385742,
17390,0.302246,-0.900879,0.40332,
17410,0.274414,-0.881836,0.371582,
17430,0.200684,-0.876465,0.350586,
17450,0.161621,-0.977051,0.371582,
17470,0.213379,-0.969727,0.382324,
17490,0.213379,-0.960938,0.378906,
17510,0.159668,-0.961426,0.377441,
17530,0.14209,-0.991699,0.43457,
17550,0.175293,-1.00732,0.422852,
17570,0.132813,-0.963867,0.378418,
17590,0.0791016,-0.961914,0.408203,
17610,0.0839844,-0.992676,0.438965,
17630,0.0732422,-1.00146,0.44043,
17650,0.0605469,-0.978027,0.460938,
17670,0.0546875,-1.00488,0.475098,
17690,0.0307617,-1.03174,0.428711,
17710,0.0336914,-1.021,0.461426,
17730,0.00878906,-0.993164,0.554688,
17750,0.0180664,-1.00879,0.502441,
17770,-0.0336914,-0.996094,0.445801,
17790,-0.0668945,-0.934082,0.442383,
17810,-0.0385742,-0.959961,0.525879,
17830,-0.0458984,-0.962402,0.566406,
17850,-0.0576172,-0.931641,0.533691,
17870,-0.0429688,-0.930176,0.494141,
17890,-0.027832,-0.911133,0.552734,
17910,-0.0239258,-0.922363,0.598145,
17930,0.00244141,-0.928711,0.578125,
17950,-0.0610352,-0.861816,0.451172,
17970,-0.127441,-0.784668,0.450684,
17990,-0.0556641,-0.796875,0.563477,
18010,-0.0102539,-0.816895,0.646484,
18030,-0.0878906,-0.766113,0.552246,
18050,-0.142578,-0.713867,0.455566,
18070,-0.14502,-0.737793,0.42627,
18090,-0.0297852,-0.761719,0.505859,
18110,0.0356445,-0.756348,0.507813,
18130,0.0649414,-0.728027,0.521973,
18150,0.027832,-0.70166,0.474609,
18170,0.0615234,-0.642578,0.48877,
18190,0.0947266,-0.651367,0.525879,
18210,0.128906,-0.693359,0.496582,
18230,0.125977,-0.658203,0.439941,
18250,0.0922852,-0.651367,0.403809,
18270,0.132813,-0.65918,0.381348,
18290,0.176758,-0.672363,0.397461,
18310,0.151855,-0.660156,0.366699,
18330,0.174316,-0.64502,0.357422,
18350,0.246582,-0.683105,0.410645,
18370,0.300293,-0.715332,0.358398,
18390,0.311523,-0.727051,0.327148,
18410,0.291992,-0.755371,0.355469,
18430,0.305176,-0.755371,0.407227,
18450,0.28418,-0.783691,0.325684,
18460,0.271973,-0.770508,0.314941,
18480,0.201172,-0.783691,0.31543,
18500,0.21875,-0.824707,0.351563,
18520,0.252441,-0.887695,0.354004,
18540,0.194336,-0.894531,0.344238,
18560,0.202637,-0.876465,0.406738,
18580,0.197754,-0.910156,0.438477,
18600,0.185059,-0.999512,0.393066,
18620,0.15625,-0.976563,0.396484,
18640,0.149414,-0.951172,0.388184,
18660,0.11377,-0.942383,0.404297,
18680,0.0610352,-0.983398,0.385254,
18700,0.0307617,-0.993164,0.395508,
18720,0.00830078,-0.951172,0.465332,
18740,0.0444336,-0.974609,0.481934,
18760,-0.0161133,-0.992188,0.412109,
18780,-0.0654297,-1.01416,0.407227,
18800,-0.0146484,-0.995117,0.498535,
18820,-0.0537109,-0.984375,0.515625,
18840,-0.0957031,-1.0083,0.492676,
18860,-0.09375,-1.01611,0.475098,
18880,-0.126465,-0.990723,0.447266,
18900,-0.118164,-1.00732,0.483887,
18920,-0.127441,-0.967773,0.51416,
18940,-0.102539,-0.949219,0.46582,
18960,-0.0830078,-0.933594,0.487305,
18980,-0.11084,-0.939941,0.48877,
19000,-0.0917969,-0.94873,0.484375,
19020,-0.0766602,-0.932129,0.509766,
19040,-0.0771484,-0.941895,0.522949,
19060,-0.0849609,-0.906738,0.54248,
19080,-0.108887,-0.860352,0.541992,
19100,-0.0922852,-0.882813,0.532715,
19120,-0.101074,-0.85791,0.486816,
19140,-0.0893555,-0.785156,0.487793,
19160,-0.0478516,-0.787109,0.591309,
19180,-0.00976563,-0.82373,0.61377,
19200,-0.0200195,-0.788574,0.475098,
19220,-0.0273438,-0.76123,0.436035,
19240,-0.0117188,-0.748047,0.476563,
19260,0.0419922,-0.775879,0.511719,
19280,0.0356445,-0.72998,0.492676,
19300,0.0786133,-0.729004,0.467285,
19320,0.115723,-0.72168,0.500488,
19340,0.154297,-0.709961,0.514648,
19360,0.159668,-0.709961,0.444336,
19380,0.177734,-0.660645,0.412598,
19400,0.174316,-0.67041,0.40918,
19420,0.199219,-0.642578,0.458008,
19440,0.193359,-0.596191,0.464844,
19460,0.165039,-0.625488,0.351074,
19480,0.144531,-0.688965,0.250488,
19500,0.177734,-0.658691,0.291504,
19520,0.231445,-0.654785,0.410156,
19540,0.253906,-0.694336,0.429199,
19560,0.258301,-0.768066,0.303223,
19580,0.23877,-0.751465,0.308594,
19600,0.246582,-0.745605,0.36377,
19620,0.256348,-0.84375,0.390625,
19640,0.255859,-0.851563,0.293945,
19660,0.23291,-0.868652,0.300781,
19680,0.251953,-0.86377,0.427246,
19700,0.230469,-0.939453,0.486328,
19720,0.118164,-0.937988,0.428711,
19740,0.0703125,-0.945313,0.419434,
19760,0.0849609,-0.942383,0.424316,
19780,0.0620117,-0.952148,0.433594,
19800,0.0214844,-0.915039,0.39209,
19820,0.00146484,-0.880859,0.393066,
19840,0.0195313,-0.945313,0.433105,
19860,-0.0126953,-0.94043,0.425293,
19880,-0.034668,-0.878418,0.458008,
19900,-0.0253906,-0.88623,0.476563,
19920,-0.0249023,-1.02783,0.451172,
19940,-0.0634766,-1.02002,0.491699,
19960,-0.0141602,-0.968262,0.625,
19980,0.0141602,-1.00439,0.57959,
20000,-0.0834961,-0.94873,0.314453,
20020,-0.147461,-0.925293,0.331055,
20040,-0.0683594,-0.980469,0.649414,
20060,-0.108398,-1.00342,0.583496,
20080,-0.179688,-0.867676,0.48584,
20100,-0.215332,-0.927734,0.473145,
20120,-0.145508,-0.933594,0.603516,
20140,-0.117676,-0.979004,0.693848,
20160,-0.164551,-0.930664,0.659668,
20180,-0.17041,-0.887695,0.578613,
20200,-0.134277,-0.872559,0.602539,
20220,-0.145508,-0.92041,0.668945,
20240,-0.101563,-0.884766,0.67334,
20260,-0.0991211,-0.813477,0.605469,
20280,-0.134277,-0.736816,0.547852,
20300,-0.0786133,-0.739258,0.556641,
20320,-0.027832,-0.777344,0.614746,
20340,0.0146484,-0.737793,0.551758,
20360,-0.00537109,-0.678223,0.440918,
20370,-0.00439453,-0.662109,0.404785,
20390,0.0180664,-0.687012,0.416992,
20410,0.0654297,-0.647461,0.438965,
20430,0.0932617,-0.625,0.467773,
20450,0.111328,-0.635254,0.429688,
20470,0.147949,-0.634766,0.379883,
20490,0.164063,-0.622559,0.301758,
20510,0.172363,-0.638184,0.283691,
20530,0.240234,-0.688965,0.279297,
20550,0.268066,-0.669434,0.331543,
20570,0.290527,-0.655273,0.319336,
20590,0.300293,-0.722168,0.361816,
20610,0.297363,-0.742188,0.351074,
20630,0.282227,-0.723633,0.299316,
20650,0.288574,-0.752441,0.281738,
20670,0.256836,-0.8125,0.309082,
20690,0.259277,-0.835449,0.307617,
20710,0.235352,-0.851074,0.344727,
20730,0.178711,-0.875977,0.370117,
20750,0.150879,-0.855957,0.40918,
20770,0.178223,-0.897461,0.476074,
20790,0.1875,-0.958984,0.462402,
20810,0.138184,-0.939453,0.384277,
20830,0.0737305,-0.897949,0.417969,
20850,0.0791016,-0.923828,0.438477,
20870,0.0522461,-0.981445,0.4375,
20890,-0.0102539,-0.954102,0.432617,
20910,0.0341797,-0.962402,0.493652,
20930,0.0371094,-1.04053,0.510742,
20950,-0.0463867,-1.03369,0.442383,
20970,-0.0761719,-1.02148,0.40625,
20990,-0.110352,-0.995605,0.416992,
21010,-0.0751953,-0.986328,0.454102,
21030,-0.0439453,-0.975098,0.458008,
21050,-0.0512695,-0.959961,0.44873,
21070,-0.0810547,-0.966309,0.433105,
21090,-0.0307617,-0.98291,0.518066,
21110,-0.0439453,-0.963867,0.480469,
21130,-0.117188,-0.898926,0.415527,
21150,-0.141113,-0.918945,0.467285,
21170,-0.0996094,-1.0332,0.549316,
21190,-0.0878906,-1.02148,0.507324,
21210,-0.123535,-0.917969,0.521484,
21230,-0.1875,-0.904297,0.598633,
21250,-0.171875,-0.885742,0.689941,
21270,-0.147949,-0.917969,0.648926,
21290,-0.177734,-0.882813,0.569336,
21310,-0.195313,-0.837891,0.544922,
21330,-0.13916,-0.819824,0.55127,
21350,-0.00976563,-0.854492,0.615234,
21370,0.000976563,-0.866211,0.54834,
21390,-0.0517578,-0.766113,0.511719,
21410,-0.0185547,-0.781738,0.508789,
21430,0.0322266,-0.78418,0.449219,
21450,0.065918,-0.766113,0.421875,
21470,0.0541992,-0.686523,0.445313,
21490,0.0859375,-0.680664,0.479004,
21510,0.106934,-0.691895,0.469727,
21530,0.119629,-0.657715,0.430664,
21550,0.114746,-0.620117,0.34668,
21570,0.151367,-0.633789,0.377441,
21590,0.194824,-0.662109,0.387695,
21610,0.199707,-0.624023,0.361328,
21630,0.212891,-0.645996,0.27832,
21650,0.263672,-0.726563,0.283691,
21670,0.279785,-0.742188,0.345703,
21690,0.301758,-0.728516,0.38916,
21710,0.320801,-0.715332,0.426758,
21730,0.290527,-0.737305,0.42334,
21750,0.251953,-0.76123,0.314453,
21770,0.219238,-0.802734,0.27002,
21790,0.256836,-0.784668,0.325684,
21810,0.293457,-0.791016,0.361816,
21830,0.256836,-0.818848,0.327637,
21850,0.207031,-0.807129,0.319336,
21870,0.199707,-0.828613,0.350098,
21890,0.294434,-0.955566,0.379883,
21910,0.306641,-0.92334,0.379883,
21930,0.237793,-0.887207,0.354492,
21950,0.164063,-0.87207,0.375488,
21970,0.115723,-0.935547,0.412598,
21990,0.0849609,-0.955078,0.404297,
22010,0.0639648,-0.884766,0.380371,
22030,-0.00878906,-0.890137,0.393066,
22050,0.0297852,-0.895996,0.427246,
22070,0.0439453,-0.949219,0.498047,
22090,0.0385742,-0.977539,0.481934,
22110,-0.0146484,-0.972168,0.440918,
22130,-0.0537109,-0.970215,0.481445,
22150,-0.00976563,-1.0083,0.486328,
22170,-0.0234375,-0.976074,0.422363,
22190,-0.0634766,-0.998047,0.442383,
22210,-0.0820313,-0.987305,0.479004,
22230,-0.034668,-1.01221,0.522949,
22250,-0.0317383,-1.00781,0.515625,
22270,-0.0722656,-0.999512,0.481934,
22290,-0.0537109,-0.980469,0.527832,
22310,-0.0375977,-1.02539,0.539063,
22330,-0.0625,-0.970703,0.527344,
22350,-0.09375,-0.956055,0.488281,
22370,-0.0708008,-0.931641,0.569336,
22390,0.0161133,-0.983887,0.704102,
22410,0.0117188,-1.00879,0.586426,
22430,-0.0532227,-0.883301,0.471191,
22450,-0.0966797,-0.837891,0.484863,
22470,-0.0742188,-0.830078,0.528809,
22490,-0.0419922,-0.806641,0.621582,
22510,-0.0205078,-0.765625,0.595703,
22530,-0.0322266,-0.742676,0.548828,
22550,-0.0458984,-0.751465,0.543457,
22570,-0.00146484,-0.722656,0.562988,
22590,0.0327148,-0.689453,0.51123,
22610,0.0419922,-0.701172,0.450195,
22630,0.0654297,-0.679688,0.431641,
22650,0.09375,-0.608887,0.442871,
22670,0.108398,-0.575684,0.437988,
22690,0.112305,-0.616211,0.430176,
22710,0.14502,-0.672363,0.373535,
22730,0.173828,-0.646973,0.318848,
22750,0.196289,-0.612793,0.30957,
22770,0.174805,-0.629883,0.387695,
22790,0.214844,-0.657715,0.436523,
22810,0.210938,-0.69043,0.410156,
22830,0.185059,-0.684082,0.357422,
22850,0.20166,-0.718262,0.313477,
22870,0.269043,-0.782715,0.358398,
22890,0.279297,-0.794434,0.370117,
22910,0.272949,-0.828613,0.296387,
22930,0.277344,-0.846191,0.298828,
22950,0.274902,-0.842285,0.320313,
22970,0.263184,-0.813965,0.365234,
22990,0.217285,-0.868164,0.337402,
23010,0.202637,-0.920898,0.245605,
23030,0.191406,-0.858887,0.25293,
23050,0.180176,-0.835449,0.305664,
23070,0.213867,-0.909668,0.437012,
23090,0.211426,-1.01367,0.425293,
23110,0.140625,-0.958984,0.365234,
23130,0.111328,-0.913574,0.381348,
23150,0.130859,-1.00635,0.421387,
23170,0.0908203,-0.994629,0.397949,
23190,0.0166016,-0.983887,0.371582,
23210,0.0166016,-0.953613,0.427246,
23230,0.0395508,-1.03271,0.472656,
23250,0.03125,-1.04883,0.441895,
23270,0.0200195,-1.02002,0.450195,
23290,0.0678711,-1.0293,0.490234,
23310,0.0336914,-1.05371,0.447266,
23330,0.0078125,-1.04785,0.499512,
23350,0.0209961,-1.01904,0.507813,
23370,0.0209961,-0.999023,0.515625,
23390,-0.0581055,-0.977539,0.48584,
23410,-0.0898438,-0.977051,0.45752,
23430,-0.0844727,-0.928223,0.512207,
23450,-0.0737305,-0.937988,0.589355,
23470,-0.0424805,-0.900879,0.583984,
23490,-0.0791016,-0.902832,0.51123,
23510,-0.090332,-0.868164,0.505371,
23530,-0.0356445,-0.876465,0.581055,
23550,0.0200195,-0.876953,0.646973,
23570,-0.00634766,-0.916504,0.577637,
23590,-0.0410156,-0.823242,0.479004,
23610,-0.0507813,-0.782715,0.510742,
23630,-0.0185547,-0.801758,0.571289,
23650,0.0136719,-0.790039,0.595703,
23670,0.0205078,-0.743164,0.532715,
23690,-0.00195313,-0.668945,0.508789,
23710,0.0146484,-0.686523,0.536621,
23720,0.0493164,-0.675781,0.48291,
23740,0.0625,-0.666992,0.406738,
23760,0.0698242,-0.668945,0.39209,
23780,0.09375,-0.649902,0.387695,
23800,0.11084,-0.645508,0.41748,
23820,0.101074,-0.579102,0.404297,
23840,0.0825195,-0.634277,0.345215,
23860,0.127441,-0.697754,0.344238,
23880,0.182129,-0.711914,0.377441,
23900,0.210938,-0.671875,0.40332,
23920,0.200684,-0.717285,0.348633,
23940,0.225098,-0.788086,0.327637,
23960,0.23877,-0.779297,0.369141,
23980,0.253906,-0.783203,0.37793,
24000,0.263184,-0.791016,0.369629,
24020,0.210449,-0.800781,0.277344,
24040,0.225098,-0.841309,0.250488,
24060,0.273438,-0.864746,0.318359,
24080,0.275391,-0.861816,0.359375,
24100,0.22168,-0.852539,0.316406,
24120,0.174316,-0.878418,0.290039,
24140,0.186035,-0.892578,0.371582,
24160,0.20752,-0.92627,0.384277,
24180,0.155273,-0.938477,0.361328,
24200,0.0878906,-0.945801,0.327637,
24220,0.0761719,-0.972168,0.393066,
24240,0.100586,-1.01025,0.458008,
24260,0.0766602,-1.00098,0.421387,
24280,0.0478516,-0.991211,0.394043,
24300,0.0371094,-1.03027,0.382324,
24320,0.0375977,-1.04102,0.411133,
24340,0.0615234,-1.04834,0.444336,
24360,0.0800781,-1.02686,0.475586,
24380,0.0307617,-1.03418,0.420898,
24400,0.00830078,-1.04492,0.431641,
24420,0.0170898,-1.05078,0.458008,
24440,-0.0180664,-1.00439,0.461426,
24460,-0.0175781,-0.964355,0.443359,
24480,0,-1.00146,0.491211,
24500,-0.0205078,-1.03516,0.5,
24520,-0.0170898,-0.996094,0.466309,
24540,-0.0522461,-0.915039,0.457031,
24560,-0.0688477,-0.888184,0.505859,
24580,-0.0498047,-0.910156,0.588379,
24600,-0.0654297,-0.967285,0.508789,
24620,-0.081543,-0.890137,0.473633,
24640,-0.0771484,-0.851563,0.517578,
24660,-0.059082,-0.893555,0.592285,
24680,-0.046875,-0.849121,0.532715,
24700,-0.0620117,-0.809082,0.461426,
24720,-0.0292969,-0.83252,0.518555,
24740,0.0175781,-0.816895,0.582031,
24760,0.00390625,-0.77002,0.52002,
24780,-0.0146484,-0.75,0.441406,
24800,0.0195313,-0.743164,0.448242,
24820,0.0449219,-0.677734,0.490234,
24840,0.0639648,-0.671387,0.531738,
24860,0.0991211,-0.680664,0.536133,
24880,0.119629,-0.659668,0.475586,
24900,0.10498,-0.65918,0.412109,
24920,0.151855,-0.704102,0.374512,
24940,0.202148,-0.706543,0.396484,
24960,0.215332,-0.657227,0.424805,
24980,0.22168,-0.686523,0.42627,
25000,0.216797,-0.685547,0.399902,
25020,0.228027,-0.69873,0.362305,
25040,0.245117,-0.719238,0.35498,
25060,0.245117,-0.703613,0.381348,
25080,0.270996,-0.69043,0.387207,
25100,0.254395,-0.715332,0.314941,
25120,0.21582,-0.719238,0.206055,
25140,0.192871,-0.71582,0.205566,
25160,0.19873,-0.79834,0.303223,
25180,0.210938,-0.830078,0.399902,
25200,0.16748,-0.840332,0.442383,
25220,0.15332,-0.887207,0.407715,
25240,0.15332,-0.918457,0.390137,
25260,0.157227,-0.913574,0.392578,
25280,0.163574,-0.918457,0.382813,
25300,0.134277,-0.887207,0.359375,
25320,0.115723,-0.916992,0.362793,
25340,0.116699,-0.932129,0.379395,
25360,0.121582,-0.922852,0.418457,
25380,0.114746,-0.925781,0.432129,
25400,0.0727539,-0.928223,0.395508,
25420,0.0566406,-0.962891,0.379395,
25440,0.0981445,-1.0127,0.455566,
25460,0.0629883,-1.04785,0.496094,
25480,0.0131836,-1.00977,0.437988,
25490,-0.000488281,-0.955566,0.439453,
25520,0.00634766,-0.992676,0.439453,
25540,0.0200195,-1.00342,0.452148,
25560,0.0234375,-1.02588,0.432617,
25580,0.0273438,-1.01172,0.44873,
25600,-0.0195313,-1.00098,0.477051,
25620,-0.0405273,-0.998047,0.476074,
25640,-0.0766602,-1.00049,0.489258,
25650,-0.0585938,-0.998047,0.486816,
25670,-0.0620117,-0.992676,0.541992,
25690,-0.0859375,-0.997559,0.529785,
25710,-0.0239258,-0.992188,0.483887,
25730,-0.0385742,-0.991699,0.506836,
25750,-0.0234375,-0.98584,0.521484,
25770,-0.0180664,-0.942383,0.556152,
25790,-0.0297852,-0.939453,0.57959,
25810,-0.00537109,-0.905273,0.557617,
25830,-0.046875,-0.87207,0.500488,
25850,-0.0869141,-0.812012,0.476563,
25870,-0.0449219,-0.800293,0.535156,
25890,0.00927734,-0.775879,0.529785,
25910,0.0385742,-0.746094,0.496094,
25930,0.0146484,-0.716309,0.46875,
25950,0.0302734,-0.71582,0.47168,
25970,0.0410156,-0.694336,0.442871,
25990,0.0361328,-0.666016,0.388672,
26010,0.034668,-0.624023,0.39209,
26030,0.0771484,-0.630371,0.397461,
26050,0.0981445,-0.67334,0.396973,
26070,0.130371,-0.65332,0.405273,
26090,0.14502,-0.627441,0.418945,
26110,0.151855,-0.625977,0.457031,
26130,0.164063,-0.695801,0.368652,
26150,0.151855,-0.702148,0.305176,
26170,0.159668,-0.698242,0.341797,
26190,0.221191,-0.730469,0.455566,
26210,0.254883,-0.807129,0.403809,
26230,0.180664,-0.779785,0.293945,
26250,0.197266,-0.774414,0.307617,
26270,0.26123,-0.900391,0.352539,
26290,0.299805,-0.864746,0.381836,
26310,0.244629,-0.810059,0.313965,
26330,0.193848,-0.838379,0.309082,
26350,0.187988,-0.848145,0.309082,
26370,0.180176,-0.879395,0.342285,
26390,0.188965,-0.875488,0.341797,
26410,0.179688,-0.844727,0.338867,
26430,0.149902,-0.87207,0.356445,
26450,0.147949,-0.929199,0.419434,
26470,0.135254,-0.937988,0.407227,
26490,0.131836,-0.908203,0.382813,
26510,0.128418,-0.928711,0.422363,
26530,0.0976563,-0.989746,0.446289,
26550,0.0366211,-0.990723,0.429199,
26570,0.0375977,-0.984863,0.406738,
26590,0.0419922,-0.973145,0.48291,
26610,0.0517578,-1.01611,0.47998,
26630,0.0219727,-1.01025,0.455566,
26650,-0.00830078,-1.04346,0.376465,
26670,0.0292969,-1.00439,0.441406,
26690,-0.000488281,-0.980469,0.476563,
26710,-0.0551758,-0.967773,0.42627,
26730,-0.0756836,-0.989258,0.447754,
26750,-0.0551758,-1.01416,0.493652,
26770,-0.0913086,-0.959961,0.519531,
26790,-0.131348,-0.941895,0.474609,
26810,-0.128906,-0.959961,0.479492,
26830,-0.0986328,-0.952637,0.503906,
26850,-0.0566406,-0.980469,0.59375,
26870,-0.0620117,-0.956543,0.540039,
26890,-0.104492,-0.911621,0.438477,
26910,-0.128418,-0.904297,0.430176,
26930,0.00292969,-0.901367,0.643066,
26950,0.046875,-0.928711,0.624023,
26970,-0.0317383,-0.855469,0.513184,
26990,-0.130859,-0.794434,0.39209,
27010,-0.0541992,-0.786621,0.435059,
27030,-0.0175781,-0.786621,0.48584,
27050,0.0151367,-0.779785,0.508789,
27070,0.0566406,-0.71875,0.498047,
27090,0.0458984,-0.729004,0.438477,
27110,0.0234375,-0.713867,0.364258,
27130,0.0458984,-0.701172,0.297363,
27150,0.0795898,-0.726563,0.291992,
27170,0.130371,-0.714355,0.365234,
27190,0.124023,-0.660645,0.413086,
27210,0.14209,-0.68457,0.430664,
27230,0.141602,-0.689941,0.388184,
27250,0.127441,-0.679688,0.367188,
27270,0.150391,-0.692871,0.41748,
27290,0.168945,-0.712402,0.424316,
27310,0.160156,-0.763184,0.40625,
27330,0.112305,-0.759277,0.306641,
27350,0.130371,-0.796387,0.333496,
27370,0.189453,-0.834961,0.399902,
27390,0.192871,-0.868652,0.373047,
27410,0.111816,-0.862305,0.247559,
27430,0.118164,-0.834961,0.280762,
27450,0.166992,-0.873535,0.364746,
27470,0.132813,-0.881836,0.383301,
27490,0.115234,-0.885742,0.34668,
27510,0.119629,-0.937012,0.312988,
27530,0.119629,-0.948242,0.296875,
27550,0.11084,-0.964844,0.311035,
27570,0.131836,-0.964844,0.30127,
27590,0.128418,-0.978516,0.299316,
27610,0.114746,-0.994629,0.280273,
27630,0.0585938,-0.991699,0.307129,
27650,0.0161133,-0.945801,0.380371,
27670,-0.0078125,-1.0127,0.419434,
27690,0.00488281,-1.06006,0.408203,
27710,-0.012207,-1.02539,0.411621,
27730,-0.0146484,-1.01563,0.402344,
27750,-0.0488281,-1.02441,0.350586,
27770,-0.0595703,-1.00342,0.339355,
27790,-0.0610352,-1.00049,0.330078,
27810,-0.0732422,-1.00244,0.339355,
27830,-0.0556641,-1.01953,0.399414,
27850,-0.0107422,-1.05273,0.404297,
27870,-0.0449219,-1.00195,0.356445,
27890,-0.0639648,-0.977051,0.353516,
27910,-0.00878906,-1.01563,0.409668,
27930,0.0292969,-1.08008,0.423828,
27950,-0.0395508,-1.01807,0.373047,
27970,-0.0932617,-0.964355,0.371582,
27990,-0.0273438,-1.021,0.487793,
28010,-0.019043,-1.03027,0.490234,
28030,-0.0908203,-0.930176,0.405762,
28050,-0.185547,-0.858887,0.355469,
28070,-0.121094,-0.898438,0.472168,
28090,-0.0527344,-0.947266,0.498047,
28110,-0.0664063,-0.880371,0.486328,
28130,-0.0952148,-0.811035,0.472168,
28150,-0.121094,-0.861328,0.431152,
28170,-0.0258789,-0.857422,0.492188,
28190,0.00390625,-0.833984,0.475098,
28210,-0.0292969,-0.730957,0.480469,
28230,-0.0307617,-0.791504,0.422852,
28250,0.00878906,-0.800293,0.428711,
28270,0.0283203,-0.745605,0.39209,
28290,-0.000488281,-0.748047,0.374023,
28310,0.0385742,-0.710449,0.382324,
28330,0.0693359,-0.722168,0.36377,
28350,0.0791016,-0.760254,0.319336,
28370,0.142578,-0.731445,0.351563,
28390,0.199707,-0.739746,0.36084,
28410,0.175293,-0.724121,0.345703,
28430,0.157227,-0.753906,0.251953,
28450,0.184082,-0.811035,0.246582,
28470,0.227539,-0.803223,0.294922,
28490,0.257813,-0.803711,0.368652,
28510,0.23584,-0.824219,0.312988,
28530,0.217773,-0.836914,0.261719,
28550,0.217285,-0.861328,0.257813,
28570,0.228027,-0.860352,0.306641,
28590,0.235352,-0.81543,0.350586,
28610,0.222168,-0.898926,0.260742,
28630,0.229492,-0.91748,0.235352,
28650,0.209961,-0.893066,0.249512,
28670,0.203613,-0.857422,0.338379,
28690,0.196777,-1.00049,0.313477,
28710,0.179688,-0.94043,0.28418,
28730,0.114258,-0.869141,0.19043,
28750,0.137695,-0.935059,0.325195,
28770,0.211914,-1.0459,0.361816,
28790,0.159668,-1.0083,0.338379,
28810,0.059082,-0.95166,0.306152,
28830,0.0366211,-0.994141,0.361816,
28850,0.0654297,-1.02197,0.453613,
28870,0.059082,-1.03516,0.405273,
28890,0.0263672,-1.02637,0.343262,
28910,0.0366211,-0.989746,0.383301,
28930,0.0571289,-1.01025,0.414063,
28950,0.0537109,-1.08936,0.411621,
28960,0.0180664,-1.04541,0.399902,
28980,-0.0297852,-1.02979,0.430176,
29000,-0.0375977,-0.994141,0.414063,
29020,-0.0561523,-0.992188,0.458008,
29040,-0.0405273,-1.01953,0.490723,
29060,-0.0488281,-1.0166,0.442871,
29080,-0.0966797,-0.964844,0.443359,
29100,-0.0620117,-0.978516,0.490723,
29120,-0.0170898,-0.985352,0.560547,
29140,-0.0332031,-0.98877,0.519043,
29160,-0.0419922,-0.891113,0.480957,
29180,-0.0561523,-0.876953,0.446289,
29200,-0.0234375,-0.87207,0.488281,
29220,0.00927734,-0.827637,0.503418,
29240,0.0253906,-0.81543,0.506348,
29260,0.0195313,-0.783691,0.460938,
29280,0.00878906,-0.757324,0.436523,
29300,0.0371094,-0.751953,0.483398,
29320,0.0625,-0.75293,0.472656,
29340,0.0732422,-0.696289,0.396484,
29360,0.0688477,-0.67334,0.330566,
29380,0.09375,-0.67627,0.37207,
29400,0.132324,-0.686523,0.389648,
29420,0.126465,-0.684082,0.390625,
29440,0.10498,-0.705078,0.374512,
29460,0.122559,-0.744141,0.363281,
29480,0.180176,-0.777344,0.33252,
29500,0.197754,-0.777344,0.369141,
29520,0.212891,-0.770508,0.377441,
29540,0.191895,-0.751953,0.357422,
29560,0.217285,-0.818848,0.321289,
29580,0.216797,-0.838379,0.290039,
29600,0.229492,-0.807617,0.30127,
29620,0.190918,-0.789551,0.311035,
29640,0.17041,-0.824707,0.251465,
29660,0.171875,-0.882813,0.230957,
29680,0.19873,-0.853516,0.295898,
29700,0.175781,-0.842773,0.334961,
29720,0.15625,-0.902832,0.342773,
29740,0.155762,-0.955078,0.327637,
29760,0.120605,-0.940918,0.275879,
29780,0.0839844,-0.922363,0.321777,
29800,0.0893555,-0.949707,0.358398,
29820,0.0722656,-0.96582,0.293457,
29840,0.0180664,-0.930176,0.24707,
29860,0.0253906,-0.956543,0.358887,
29880,0.0761719,-0.998535,0.464844,
29900,0.0390625,-1.06055,0.36377,
29920,-0.00341797,-1.00244,0.333496,
29940,-0.0131836,-0.949219,0.357422,
29960,0.0166016,-1.06104,0.371582,
29980,0.0141602,-1.07373,0.345703,
30000,-0.00390625,-1.0415,0.387695,
30020,0.0302734,-1.04053,0.432129,
30040,0.0571289,-1.07178,0.473145,
30060,0.0263672,-1.05029,0.379395,
30080,-0.0180664,-0.995117,0.388184,
30100,-0.0224609,-0.949707,0.465332,
30120,-0.0327148,-0.977539,0.523926,
30140,-0.100586,-0.936523,0.469727,
30160,-0.149414,-0.933594,0.408691,
30180,-0.0976563,-0.928223,0.522461,
30200,-0.0820313,-0.943848,0.537598,
30220,-0.130371,-0.878418,0.492188,
30240,-0.130371,-0.878418,0.475586,
30260,-0.0898438,-0.910645,0.467773,
30280,-0.0537109,-0.902832,0.538086,
30300,-0.0268555,-0.885742,0.553711,
30320,-0.0185547,-0.833008,0.57959,
30340,-0.0166016,-0.832031,0.553223,
30360,0.000488281,-0.822754,0.527344,
30380,0.000976563,-0.791992,0.512207,
30400,0.0366211,-0.775391,0.534668,
30420,0.0996094,-0.777344,0.524902,
30440,0.0810547,-0.775391,0.428223,
30460,0.0639648,-0.731445,0.372559,
30480,0.0976563,-0.722168,0.384277,
30500,0.138672,-0.706543,0.459473,
30520,0.155273,-0.686035,0.448242,
30540,0.135254,-0.620605,0.391113,
30560,0.12207,-0.634766,0.342285,
30580,0.123535,-0.689941,0.361816,
30600,0.140137,-0.692383,0.373535,
30620,0.17041,-0.694824,0.371582,
30640,0.192871,-0.681641,0.373535,
30660,0.201172,-0.709473,0.344727,
30680,0.219238,-0.80127,0.308105,
30700,0.239258,-0.777832,0.312012,
30720,0.237793,-0.754395,0.344727,
30740,0.265625,-0.785156,0.390625,
30760,0.246094,-0.801758,0.427734,
30780,0.203613,-0.845703,0.311523,
30800,0.176758,-0.839844,0.291992,
30820,0.171387,-0.850586,0.313965,
30840,0.173828,-0.861328,0.372559,
30860,0.166504,-0.904785,0.339355,
30880,0.121582,-0.903809,0.338379,
30900,0.0927734,-0.888672,0.334961,
30910,0.107422,-0.942383,0.362793,
30930,0.107422,-0.924805,0.398438,
30950,0.0585938,-0.927246,0.380859,
30970,0.0649414,-0.952637,0.393555,
30990,0.0415039,-0.958008,0.388672,
31010,0.0327148,-0.935059,0.333008,
31030,-0.0180664,-0.95166,0.337891,
31050,0.000976563,-0.96875,0.402344,
31070,0.00195313,-0.969727,0.411133,
31090,0.00878906,-0.98877,0.437988,
31110,-0.0146484,-0.999512,0.435059,
31130,-0.0483398,-1.03418,0.349121,
31150,-0.0258789,-1.03906,0.371582,
31170,0.0170898,-1.06592,0.46582,
31190,0.00244141,-1.04248,0.54248,
31210,-0.050293,-0.991211,0.471191,
31230,-0.0444336,-1.00684,0.437012,
31250,-0.0415039,-1.0293,0.469727,
31270,0.00195313,-1.02539,0.537109,
31290,-0.0170898,-0.969238,0.541992,
31310,-0.0756836,-0.933594,0.519531,
31330,-0.115723,-0.944824,0.443848,
31350,-0.0917969,-0.910156,0.48877,
31370,-0.0527344,-0.92041,0.577637,
31390,-0.0356445,-0.902344,0.590332,
31410,-0.0737305,-0.82373,0.497559,
31430,-0.0952148,-0.828613,0.510254,
31450,-0.0571289,-0.809082,0.526855,
31470,0.00292969,-0.800293,0.55957,
31490,0.0126953,-0.804688,0.568359,
31510,-0.00585938,-0.779785,0.479492,
31530,-0.0322266,-0.722168,0.423828,
31550,0.00634766,-0.726074,0.439941,
31570,0.050293,-0.734863,0.493652,
31590,0.0571289,-0.698242,0.462402,
31610,0.0810547,-0.663086,0.429199,
31630,0.0917969,-0.683105,0.404785,
31650,0.106445,-0.712891,0.393066,
31670,0.146973,-0.682129,0.399902,
31690,0.174316,-0.665039,0.419434,
31710,0.166992,-0.67041,0.370117,
31730,0.145996,-0.702637,0.305664,
31750,0.167969,-0.743652,0.270508,
31770,0.220703,-0.736816,0.346191,
31790,0.265625,-0.722656,0.422363,
31810,0.252441,-0.731445,0.437012,
31830,0.225586,-0.782715,0.374023,
31850,0.19873,-0.787109,0.335449,
31870,0.181152,-0.779785,0.344238,
31890,0.223633,-0.811523,0.355469,
31910,0.183594,-0.84668,0.316406,
31930,0.170898,-0.822754,0.258789,
31950,0.150879,-0.828613,0.326172,
31970,0.209961,-0.89502,0.374512,
31990,0.212891,-0.884277,0.358887,
32010,0.162598,-0.894531,0.282227,
32030,0.119141,-0.885742,0.282715,
32050,0.137207,-0.997559,0.403809,
32070,0.135254,-1.0127,0.487305,
32090,0.104492,-0.992676,0.446289,
32110,0.00976563,-0.947266,0.357422,
32130,-0.0400391,-0.97998,0.358398,
32150,-0.00976563,-1.00635,0.442871,
32170,0.0126953,-0.984863,0.446777,
32190,-0.0166016,-0.992676,0.376465,
32210,-0.0493164,-1.01367,0.35791,
32230,-0.0302734,-1.01416,0.42041,
32250,0.00634766,-1.01172,0.450195,
32270,0.0200195,-0.991699,0.398926,
32290,-0.0297852,-0.961426,0.381348,
32310,0.0180664,-0.998047,0.514648,
32330,0.0136719,-1.06299,0.479004,
32350,-0.0361328,-0.952148,0.438477,
32370,-0.0708008,-0.922363,0.436523,
32390,-0.0791016,-0.95459,0.512695,
32410,-0.0625,-0.973145,0.523926,
32430,-0.103516,-0.903809,0.503418,
32450,-0.0927734,-0.936035,0.513672,
32470,-0.0693359,-0.935547,0.585938,
32490,-0.0668945,-0.936523,0.597656,
32510,-0.0737305,-0.885742,0.567383,
32530,-0.0649414,-0.871094,0.57373,
32550,-0.0371094,-0.843262,0.584961,
32570,-0.0532227,-0.843262,0.516113,
32590,-0.0566406,-0.779785,0.478027,
32610,0,-0.800293,0.467773,
32630,0.0351563,-0.793945,0.479004,
32650,0.0424805,-0.757324,0.468262,
32670,0.0322266,-0.72168,0.489746,
32690,0.0737305,-0.740234,0.512695,
32710,0.0952148,-0.749023,0.509277,
32730,0.106934,-0.710449,0.459961,
32750,0.108887,-0.690918,0.420898,
32770,0.131348,-0.693359,0.390137,
32790,0.123535,-0.685547,0.330566,
32810,0.136719,-0.621582,0.349121,
32830,0.16748,-0.666504,0.40625,
32850,0.17041,-0.68457,0.400879,
32870,0.120605,-0.697266,0.349609,
32890,0.109863,-0.699219,0.397949,
32910,0.160156,-0.737305,0.453613,
32930,0.164063,-0.75,0.410156,
32950,0.124023,-0.732422,0.325195,
32970,0.113281,-0.774414,0.356445,
32990,0.116699,-0.817871,0.438965,
33010,0.110352,-0.84082,0.43457,
33030,0.0639648,-0.859375,0.354492,
33050,0.00683594,-0.839355,0.304199,
33070,0.0454102,-0.835938,0.385742,
33090,0.0834961,-0.909668,0.410156,
33110,0.0810547,-0.969238,0.384766,
33130,0.0478516,-0.916504,0.305664,
33150,0.0209961,-0.904785,0.32959,
33170,0.0668945,-0.984375,0.38623,
33190,0.0786133,-0.982422,0.406738,
33210,0.000976563,-0.881836,0.343262,
33230,-0.0375977,-0.912598,0.38916,
33250,-0.0375977,-0.995117,0.444824,
33270,-0.0322266,-0.990723,0.481445,
33290,-0.0429688,-0.962402,0.467773,
33310,-0.0688477,-0.980469,0.410156,
33330,-0.0673828,-1.00195,0.429688,
33350,-0.0288086,-0.996582,0.455566,
33370,-0.0195313,-0.959961,0.496094,
33390,-0.0761719,-0.972656,0.432129,
33410,-0.134766,-0.976074,0.40918,
33430,-0.0712891,-1.01318,0.507813,
33450,-0.0224609,-1.02393,0.513184,
33470,-0.125488,-0.953613,0.458008,
33490,-0.207031,-0.891602,0.450684,
33510,-0.222168,-0.927246,0.463379,
33530,-0.195801,-0.941406,0.477539,
33550,-0.172363,-0.889648,0.513672,
33570,-0.195313,-0.865234,0.558105,
33590,-0.206055,-0.919434,0.503906,
33610,-0.0869141,-0.908691,0.546387,
33630,-0.0888672,-0.91748,0.506836,
33650,-0.0761719,-0.841309,0.518555,
33670,-0.0444336,-0.893555,0.565918,
33690,-0.00878906,-0.916504,0.499023,
33710,-0.0258789,-0.866211,0.44873,
33730,-0.0327148,-0.825684,0.486328,
33750,0.015625,-0.838867,0.524414,
33770,0.00390625,-0.814453,0.527344,
33790,-0.0258789,-0.748047,0.48584,
33810,-0.0219727,-0.738281,0.46582,
33830,-0.0205078,-0.731445,0.492676,
33850,0.015625,-0.749512,0.493164,
33870,0.0166016,-0.72998,0.476563,
33890,0.0385742,-0.727539,0.441406,
33910,0.0292969,-0.734375,0.35498,
33930,0.0932617,-0.700684,0.35498,
33950,0.140625,-0.667969,0.351563,
33970,0.155762,-0.640137,0.385742,
33990,0.166992,-0.688965,0.349121,
34010,0.170898,-0.699219,0.294434,
34030,0.155762,-0.701172,0.332031,
34050,0.157715,-0.745605,0.386719,
34070,0.15918,-0.783691,0.345703,
34090,0.106445,-0.779785,0.29541,
34110,0.0834961,-0.780762,0.260742,
34130,0.102051,-0.84375,0.307617,
34150,0.0947266,-0.846191,0.367188,
34170,0.0605469,-0.835449,0.320313,
34190,0.034668,-0.895996,0.30127,
34210,0.034668,-0.947754,0.390625,
34220,0.0874023,-0.955078,0.459961,
34240,0.105469,-0.978516,0.39502,
34260,0.0527344,-0.991211,0.374512,
34280,0.0449219,-0.976074,0.392578,
34300,0.078125,-0.938965,0.452148,
34320,0.0820313,-0.925781,0.402832,
34340,0.0307617,-0.898926,0.345703,
34360,0.00537109,-0.924805,0.407715,
34380,0.0112305,-0.918457,0.467285,
34400,-0.0263672,-0.94043,0.455078,
34420,-0.0776367,-0.915039,0.446289,
34440,-0.0717773,-0.947266,0.447266,
34460,-0.0473633,-0.992676,0.519531,
34480,-0.0498047,-1.0293,0.513672,
34500,-0.0942383,-1.00439,0.472656,
34520,-0.0961914,-0.970215,0.507324,
34540,-0.0761719,-1.00244,0.561523,
34560,-0.059082,-1.04736,0.553223,
34580,-0.0625,-0.984375,0.503906,
34600,-0.100098,-0.930176,0.513184,
34620,-0.0634766,-0.958008,0.571777,
34640,-0.0571289,-0.969727,0.589355,
34660,-0.0786133,-0.919434,0.558105,
34680,-0.0649414,-0.928223,0.567383,
34700,-0.0571289,-0.916992,0.581055,
34720,-0.050293,-0.882324,0.574219,
34740,-0.0488281,-0.876953,0.543945,
34760,-0.0566406,-0.796387,0.509766,
34780,-0.0693359,-0.779785,0.539551,
34800,-0.0498047,-0.76709,0.547363,
34820,-0.0263672,-0.737793,0.513184,
34840,-0.0385742,-0.686035,0.463379,
34860,-0.00537109,-0.662598,0.42627,
34880,0.00195313,-0.675293,0.416992,
34900,0.0371094,-0.680664,0.400391,
34920,0.0751953,-0.672852,0.422363,
34940,0.105957,-0.643555,0.430176,
34960,0.0966797,-0.63623,0.413086,
34980,0.104492,-0.66748,0.402344,
35000,0.108887,-0.686035,0.382324,
35020,0.100586,-0.701172,0.393555,
35040,0.12793,-0.686035,0.407227,
35060,0.114746,-0.728027,0.378418,
35080,0.120605,-0.760254,0.338867,
35100,0.146973,-0.825195,0.330566,
35120,0.141113,-0.834961,0.360352,
35140,0.169434,-0.819336,0.390625,
35160,0.169434,-0.842285,0.421875,
35180,0.139648,-0.810547,0.397949,
35200,0.117676,-0.820313,0.356445,
35220,0.102051,-0.869141,0.330566,
35240,0.0859375,-0.871582,0.322266,
35260,0.0239258,-0.831055,0.349121,
35280,-0.00195313,-0.862793,0.37207,
35300,-0.0268555,-0.92627,0.334961,
35320,-0.0517578,-0.963867,0.375488,
35340,-0.00878906,-0.946777,0.524902,
35360,-0.0117188,-0.96582,0.502441,
35380,-0.0507813,-0.972168,0.382813,
35400,-0.0395508,-0.992188,0.347168,
35420,-0.0439453,-0.947266,0.444336,
35440,0.000488281,-0.936523,0.470703,
35460,0.0195313,-0.986816,0.399902,
35480,-0.0131836,-1.02197,0.24707,
35500,-0.00634766,-0.972168,0.432129,
35520,0.0673828,-0.970703,0.59668,
35540,0.0717773,-1.0459,0.48877,
35560,-0.0112305,-1.00342,0.355469,
35580,-0.0395508,-0.957031,0.366211,
35600,-0.0244141,-0.989258,0.469727,
35620,-0.0302734,-0.999512,0.433105,
35640,-0.0834961,-0.959473,0.404297,
35660,-0.0996094,-0.973145,0.429688,
35680,-0.0820313,-0.952148,0.541992,
35700,-0.0966797,-0.95459,0.485352,
35720,-0.134766,-0.952637,0.42041,
35740,-0.156738,-0.886719,0.413086,
35760,-0.0576172,-0.92627,0.529785,
35780,-0.0595703,-0.930664,0.615234,
35800,-0.125,-0.910645,0.503418,
35820,-0.128418,-0.881348,0.452637,
35840,-0.117676,-0.884277,0.521973,
35860,-0.0644531,-0.914063,0.584473,
35880,-0.0654297,-0.890625,0.563965,
35900,-0.050293,-0.822266,0.556641,
35920,-0.0170898,-0.837402,0.488281,
35940,-0.043457,-0.807617,0.466797,
35960,0.0253906,-0.791016,0.524414,
35980,0.0244141,-0.806641,0.488281,
36000,0.0078125,-0.744629,0.394531,
36020,0.0224609,-0.745117,0.390137,
36040,0.0463867,-0.741699,0.463867,
36060,0.103027,-0.74707,0.501953,
36080,0.116211,-0.697754,0.491211,
36100,0.123047,-0.688965,0.46582,
36120,0.130371,-0.727539,0.461914,
36130,0.156738,-0.742676,0.416016,
36150,0.166504,-0.721191,0.364258,
36170,0.187988,-0.708984,0.368164,
36190,0.208008,-0.715332,0.423828,
36210,0.219727,-0.742188,0.389648,
36230,0.204102,-0.760742,0.374512,
36250,0.198242,-0.744629,0.370605,
36270,0.242188,-0.744629,0.436523,
36290,0.248047,-0.736328,0.44043,
36310,0.21875,-0.725586,0.333984,
36330,0.208496,-0.783203,0.26709,
36350,0.213867,-0.82959,0.307617,
36370,0.241211,-0.818848,0.378418,
36390,0.238281,-0.794434,0.400391,
36410,0.210938,-0.797363,0.390137,
36430,0.166504,-0.843262,0.315918,
36450,0.163086,-0.817871,0.32666,
36470,0.19043,-0.813965,0.362793,
36490,0.178711,-0.872559,0.380371,
36510,0.163574,-0.871094,0.370117,
36530,0.146973,-0.875,0.368164,
36550,0.107422,-0.878906,0.422363,
36570,0.105957,-0.873535,0.432617,
36590,0.0742188,-0.915039,0.42334,
36610,0.0214844,-0.89209,0.390625,
36630,0.0180664,-0.873047,0.399414,
36650,0.0117188,-0.915527,0.445313,
36670,0.0375977,-0.947754,0.440918,
36690,0.012207,-0.914551,0.437012,
36710,0.0244141,-0.952637,0.479004,
36730,0.0332031,-1.00342,0.441406,
36750,0.0332031,-0.959473,0.427734,
36770,0.0449219,-0.936523,0.470703,
36790,0.03125,-0.939941,0.496094,
36810,0.00878906,-0.958008,0.449219,
36830,-0.0170898,-0.912109,0.437012,
36850,-0.0375977,-0.883301,0.401367,
36870,-0.0449219,-0.918945,0.414063,
36890,-0.0712891,-0.928711,0.470703,
36910,-0.0751953,-0.875,0.421875,
36930,-0.0717773,-0.875977,0.402344,
36950,-0.0932617,-0.84668,0.463867,
36970,-0.0708008,-0.884766,0.502441,
36990,-0.0898438,-0.917969,0.506348,
37010,-0.108887,-0.894043,0.505859,
37030,-0.0942383,-0.915039,0.480957,
37050,-0.105469,-0.957031,0.486328,
37070,-0.104004,-0.81543,0.446777,
37090,-0.111328,-0.831055,0.437988,
37110,-0.146484,-0.87207,0.461426,
37130,-0.150879,-0.867188,0.481445,
37150,-0.125,-0.792969,0.473145,
37170,-0.125977,-0.777344,0.428711,
37190,-0.124023,-0.81543,0.432129,
37210,-0.0419922,-0.82666,0.484375,
37230,0.0161133,-0.839844,0.527832,
37250,0.0317383,-0.82666,0.556641,
37270,0.0224609,-0.883789,0.493164,
37290,-0.0170898,-0.81543,0.422852,
37310,-0.0322266,-0.807129,0.404297,
37330,0.00146484,-0.785645,0.450195,
37350,0.0146484,-0.804688,0.461426,
37370,0.0214844,-0.839844,0.416992,
37390,0.0107422,-0.852051,0.419922,
37410,0.0473633,-0.824707,0.446289,
37430,0.0585938,-0.853027,0.507324,
37450,0.0673828,-0.855957,0.505859,
37470,0.0610352,-0.844238,0.453125,
37490,0.0869141,-0.853516,0.495605,
37510,0.0947266,-0.921875,0.472168,
37530,0.0786133,-0.918945,0.494141,
37550,0.0581055,-0.902832,0.537598,
37570,0.101074,-0.852539,0.640137,
37590,0.0737305,-0.860352,0.592773,
37610,0.015625,-0.824707,0.483887,
37630,0.0380859,-0.867676,0.541504,
37650,0.0258789,-0.883789,0.524414,
37670,0.00927734,-0.841797,0.540039,
37690,0.0117188,-0.803223,0.490723,
37710,-0.0410156,-0.788574,0.421875,
37730,-0.0761719,-0.849609,0.452637,
37750,-1.21191,-2.84375,1.17383,
37770,0.986328,-0.0766602,0.49707,
37790,0.193359,0.832031,0.21582,
37810,-0.343262,-0.486328,0.408203,
37830,-0.0571289,-1.50195,0.578613,
37850,0.0517578,-1.55615,0.527344,
37870,0.0419922,-0.608887,0.515137,
37890,-0.0825195,-0.388184,0.518555,
37910,-0.31543,-1.39355,0.708008,
37930,0.611328,0.183105,0.45752,
37950,0.108398,-0.121582,0.461914,
37970,-0.181152,-0.843262,0.505371,
37990,-0.102051,-1.42822,0.555176,
38010,0.097168,-0.963379,0.560547,
38030,0.00292969,-0.496094,0.550781,
38050,-0.065918,-0.534668,0.526367,
38070,0.0283203,-0.870605,0.60498,
38090,0.0507813,-0.898438,0.609863,
38110,0.0185547,-0.724609,0.5625,
38130,0.0112305,-0.714844,0.528809,
38150,0.0678711,-0.812988,0.552734,
38170,0.0556641,-0.854492,0.562988,
38190,-0.015625,-0.812988,0.553711,
38210,-0.0385742,-0.754883,0.562012,
38230,-0.0717773,-0.793457,0.57373,
38250,-0.0454102,-0.812012,0.622559,
38270,-0.0200195,-0.794922,0.641602,
38290,0.00195313,-0.76416,0.587402,
38310,-0.00585938,-0.732422,0.52002,
38330,0.00195313,-0.73291,0.481934,
38350,-0.0078125,-0.750488,0.527832,
38370,0.0136719,-0.775391,0.549805,
38390,-0.0078125,-0.746094,0.529785,
38410,-0.0102539,-0.733887,0.512207,
38430,0.0175781,-0.75293,0.583008,
38450,0.0527344,-0.774414,0.653809,
38470,0.0292969,-0.778809,0.609863,
38490,-0.0507813,-0.764648,0.507813,
38510,-0.0483398,-0.76709,0.52832,
38530,-0.0146484,-0.763672,0.607422,
38550,-0.0224609,-0.758789,0.602051,
38570,-0.0283203,-0.774414,0.550781,
38590,-0.0405273,-0.774902,0.543457,
38610,-0.0263672,-0.775391,0.584473,
38630,-0.0078125,-0.784668,0.644043,
