Timestamp, Acceleration x, Acceleration y, Acceleration z
20,-0.334961,-0.834961,0.676758,
50,-0.318359,-0.952148,0.675293,
70,-0.325684,-0.824219,0.710938,
90,-0.292969,-0.633301,0.750977,
110,-0.249512,-0.633301,0.761719,
120,-0.242188,-0.757813,0.750488,
120,-0.228027,-0.761719,0.682129,
160,-0.204102,-0.707031,0.66748,
180,-0.144531,-0.607422,0.664551,
200,-0.12793,-0.516602,0.63916,
220,-0.0751953,-0.512695,0.629883,
240,-0.0727539,-0.552246,0.638672,
260,-0.074707,-0.54248,0.631836,
280,-0.0561523,-0.508301,0.632813,
300,-0.0395508,-0.478027,0.644043,
320,-0.0332031,-0.460449,0.641113,
340,-0.0517578,-0.478027,0.615234,
360,-0.0649414,-0.48877,0.598145,
380,-0.0429688,-0.466309,0.632813,
400,-0.0141602,-0.478516,0.66748,
420,-0.0078125,-0.502441,0.677246,
440,-0.00488281,-0.495117,0.664063,
460,-0.027832,-0.504883,0.679199,
480,-0.0209961,-0.532227,0.682617,
500,-0.0141602,-0.522461,0.697266,
520,-0.0263672,-0.493164,0.697754,
540,-0.0244141,-0.509766,0.704102,
560,0.00195313,-0.51123,0.739258,
580,0.00195313,-0.50293,0.736328,
600,-0.0366211,-0.522461,0.728516,
620,-0.0288086,-0.533691,0.734375,
640,-0.00830078,-0.54541,0.756836,
660,-0.0185547,-0.563477,0.754395,
680,-0.0317383,-0.559082,0.749512,
700,-0.0234375,-0.564941,0.777832,
720,-0.00488281,-0.579102,0.790039,
740,-0.0195313,-0.572266,0.777832,
760,-0.0488281,-0.540039,0.748047,
780,-0.0371094,-0.559082,0.751953,
800,-0.0400391,-0.563965,0.763184,
820,-0.0415039,-0.55957,0.766602,
840,-0.0615234,-0.54541,0.76123,
860,-0.0571289,-0.565918,0.752441,
880,-0.0771484,-0.572266,0.741211,
900,-0.074707,-0.556152,0.729004,
920,-0.0522461,-0.541504,0.751465,
940,-0.0419922,-0.550293,0.756348,
960,-0.0463867,-0.560547,0.759277,
980,-0.0581055,-0.557129,0.744629,
1000,-0.059082,-0.549805,0.728027,
1020,-0.0605469,-0.540039,0.728516,
1040,-0.0576172,-0.539551,0.742188,
1060,-0.0473633,-0.539551,0.752441,
1080,-0.0488281,-0.541504,0.744629,
1100,-0.0610352,-0.546875,0.733887,
1120,-0.0566406,-0.567871,0.726074,
1140,-0.0400391,-0.564941,0.738281,
1160,-0.0571289,-0.549316,0.736816,
1180,-0.0566406,-0.540527,0.742676,
1200,-0.0463867,-0.542969,0.742676,
1220,-0.0522461,-0.565918,0.745605,
1240,-0.0556641,-0.555664,0.735352,
1260,-0.0517578,-0.554199,0.734863,
1280,-0.0561523,-0.560547,0.742188,
1300,-0.0512695,-0.557617,0.733398,
1320,-0.0566406,-0.547852,0.740234,
1340,-0.0444336,-0.550781,0.742188,
1360,-0.0444336,-0.549316,0.747559,
1380,-0.050293,-0.564453,0.737793,
1400,-0.0566406,-0.553711,0.73584,
1420,-0.0463867,-0.559082,0.731445,
1440,-0.0463867,-0.562012,0.731445,
1460,-0.0405273,-0.562988,0.741699,
1480,-0.0473633,-0.553223,0.731934,
1500,-0.0576172,-0.553711,0.739258,
1520,-0.0458984,-0.554688,0.745117,
1540,-0.0517578,-0.557129,0.744629,
1560,-0.0629883,-0.553223,0.741699,
1580,-0.0551758,-0.566895,0.739258,
1600,-0.0600586,-0.55957,0.742676,
1620,-0.0639648,-0.570313,0.73877,
1640,-0.0566406,-0.566406,0.737305,
1660,-0.0380859,-0.569824,0.754883,
1680,-0.0444336,-0.556152,0.744141,
1700,-0.0517578,-0.547852,0.742188,
1720,-0.0439453,-0.555664,0.736816,
1740,-0.0493164,-0.5625,0.744141,
1760,-0.0493164,-0.553711,0.744629,
1780,-0.0522461,-0.542969,0.736328,
1800,-0.0541992,-0.555176,0.748047,
1820,-0.0522461,-0.561035,0.743164,
1840,-0.0546875,-0.554688,0.740234,
1860,-0.0561523,-0.550293,0.737793,
1880,-0.0537109,-0.546387,0.733887,
1900,-0.0566406,-0.54834,0.737305,
1920,-0.0576172,-0.540527,0.731934,
1940,-0.0581055,-0.55957,0.73291,
1960,-0.0566406,-0.563477,0.73291,
1980,-0.0620117,-0.547363,0.731934,
2000,-0.0615234,-0.541992,0.73291,
2020,-0.0532227,-0.546387,0.734375,
2040,-0.0483398,-0.561523,0.734863,
2060,-0.0556641,-0.548828,0.730469,
2080,-0.0546875,-0.560547,0.726563,
2100,-0.0439453,-0.558594,0.737305,
2120,-0.0493164,-0.552246,0.75,
2140,-0.0566406,-0.561035,0.740234,
2160,-0.0678711,-0.57373,0.736816,
2180,-0.0688477,-0.575684,0.742676,
2200,-0.0683594,-0.566895,0.734375,
2220,-0.0791016,-0.555664,0.732422,
2230,-0.0629883,-0.557617,0.741211,
2250,-0.0556641,-0.57959,0.737793,
2270,-0.0717773,-0.578613,0.723145,
2290,-0.0751953,-0.568359,0.72168,
2310,-0.0708008,-0.543945,0.715332,
2330,-0.0742188,-0.546875,0.713379,
2350,-0.0810547,-0.57373,0.703613,
2370,-0.081543,-0.573242,0.699707,
2390,-0.0820313,-0.55957,0.698242,
2410,-0.0776367,-0.574219,0.687012,
2430,-0.0883789,-0.588867,0.689453,
2450,-0.0834961,-0.568848,0.699219,
2470,-0.065918,-0.56543,0.712891,
2490,-0.0688477,-0.569336,0.708496,
2510,-0.0761719,-0.576172,0.700195,
2530,-0.0922852,-0.581543,0.720215,
2550,-0.0800781,-0.551758,0.746582,
2570,-0.0488281,-0.53418,0.766113,
2590,-0.0805664,-0.560547,0.756836,
2610,-0.125,-0.555176,0.741699,
2630,-0.134766,-0.525879,0.757324,
2650,-0.0825195,-0.492188,0.76123,
2670,-0.0830078,-0.534668,0.76709,
2690,-0.112305,-0.550293,0.775879,
2710,-0.0932617,-0.521973,0.802246,
2730,-0.0600586,-0.547852,0.826172,
2750,-0.104492,-0.520508,0.825195,
2770,-0.119141,-0.504395,0.844238,
2790,-0.102539,-0.507324,0.871582,
2810,-0.0585938,-0.559082,0.898926,
2830,-0.0615234,-0.562012,0.899902,
2850,-0.0825195,-0.516113,0.905762,
2870,-0.0600586,-0.519531,0.958008,
2890,0.00585938,-0.572754,1.01611,
2910,0.00390625,-0.57373,0.981934,
2930,-0.0356445,-0.509766,0.936035,
2950,-0.0219727,-0.45166,0.958496,
2970,0.0332031,-0.469238,0.955078,
2990,0.0175781,-0.465332,0.944824,
3010,0.0185547,-0.407227,0.917969,
3030,0.0463867,-0.384766,0.891113,
3050,0.0625,-0.371094,0.854492,
3070,0.0922852,-0.355469,0.839844,
3090,0.126465,-0.326172,0.79248,
3110,0.160156,-0.320801,0.765137,
3130,0.180176,-0.337402,0.711914,
3150,0.176758,-0.312988,0.671387,
3170,0.200684,-0.277832,0.635254,
3190,0.213867,-0.247559,0.621094,
3210,0.208984,-0.23291,0.607422,
3230,0.200195,-0.244141,0.588379,
3250,0.231445,-0.327148,0.557617,
3270,0.249023,-0.377441,0.524414,
3290,0.244141,-0.358398,0.5,
3310,0.252441,-0.363281,0.507324,
3330,0.249512,-0.429199,0.503906,
3350,0.250488,-0.486816,0.504395,
3370,0.260742,-0.51709,0.535156,
3390,0.29834,-0.521484,0.570313,
3410,0.287109,-0.552246,0.574219,
3430,0.240723,-0.583984,0.545898,
3450,0.231445,-0.644531,0.574707,
3470,0.279297,-0.628418,0.650391,
3490,0.219727,-0.618164,0.547363,
3510,0.0976563,-0.602051,0.55957,
3530,-0.0180664,-0.596191,0.597168,
3550,0.0253906,-0.6875,0.693359,
3570,0.0678711,-0.709473,0.71875,
3590,-0.0195313,-0.628418,0.703125,
3610,-0.0522461,-0.558594,0.766113,
3630,-0.00195313,-0.659668,0.75,
3650,-0.0673828,-0.71582,0.776367,
3670,-0.123047,-0.663086,0.790039,
3690,-0.111328,-0.597168,0.824219,
3710,-0.0610352,-0.650391,0.888672,
3730,-0.100098,-0.703125,0.850586,
3750,-0.192871,-0.638184,0.822266,
3770,-0.18457,-0.582031,0.839355,
3790,-0.15918,-0.575195,0.890137,
3810,-0.162109,-0.61084,0.908203,
3830,-0.208496,-0.587891,0.92627,
3850,-0.219727,-0.561523,0.90918,
3870,-0.234863,-0.528809,0.941406,
3890,-0.219727,-0.48877,0.942871,
3910,-0.219727,-0.482422,0.979492,
3930,-0.224121,-0.426758,0.961426,
3950,-0.22168,-0.448242,0.952148,
3970,-0.192871,-0.443848,0.944336,
3990,-0.152832,-0.415039,0.948242,
4010,-0.114746,-0.429688,0.94873,
4030,-0.121582,-0.408203,0.905273,
4050,-0.0986328,-0.416992,0.875488,
4070,-0.0405273,-0.416016,0.853516,
4090,-0.0102539,-0.411621,0.847656,
4100,0.000488281,-0.419434,0.806152,
4120,-0.019043,-0.411133,0.754395,
4140,0.000488281,-0.379395,0.720703,
4160,0.0405273,-0.365723,0.719238,
4180,0.0620117,-0.368652,0.683594,
4200,0.0737305,-0.385742,0.671875,
4220,0.0874023,-0.405762,0.653809,
4240,0.106445,-0.418457,0.63916,
4260,0.105957,-0.405762,0.619629,
4280,0.0825195,-0.430176,0.598633,
4300,0.0922852,-0.467773,0.575684,
4320,0.111328,-0.518066,0.576172,
4340,0.14502,-0.529785,0.57373,
4360,0.143066,-0.515137,0.557617,
4380,0.119629,-0.557617,0.563965,
4400,0.134766,-0.619629,0.57666,
4420,0.118652,-0.631348,0.567871,
4440,0.125,-0.617188,0.577148,
4460,0.0898438,-0.628418,0.574707,
4480,0.0551758,-0.697266,0.586426,
4500,0.0483398,-0.717773,0.590332,
4520,0.00537109,-0.656738,0.560059,
4540,-0.0444336,-0.604492,0.560547,
4560,-0.0830078,-0.645996,0.617676,
4580,-0.046875,-0.793945,0.623535,
4600,-0.0957031,-0.792969,0.629883,
4620,-0.192871,-0.681641,0.596191,
4640,-0.208008,-0.591797,0.677734,
4660,-0.138184,-0.730469,0.714355,
4680,-0.202637,-0.791016,0.723633,
4700,-0.22998,-0.747559,0.721191,
4720,-0.22998,-0.719727,0.756348,
4740,-0.182129,-0.742676,0.837891,
4760,-0.187988,-0.783203,0.874023,
4780,-0.227539,-0.722656,0.847168,
4800,-0.245117,-0.651367,0.868652,
4820,-0.262207,-0.63916,0.90918,
4840,-0.219727,-0.639648,0.992188,
4860,-0.216797,-0.611328,1.01807,
4880,-0.234863,-0.591797,0.996582,
4900,-0.226074,-0.586426,0.98584,
4920,-0.192871,-0.526855,1.01611,
4940,-0.135742,-0.532227,1.0249,
4960,-0.117676,-0.513672,1.00732,
4980,-0.0703125,-0.476563,0.986328,
5000,-0.0336914,-0.418457,0.937988,
5020,-0.0244141,-0.375,0.85498,
5040,-0.0366211,-0.306152,0.812988,
5060,-0.0146484,-0.257813,0.765625,
5080,0.000976563,-0.252441,0.752441,
5100,0.0146484,-0.243652,0.729004,
5120,0.03125,-0.243164,0.696289,
5140,0.0219727,-0.230957,0.665039,
5160,0.0390625,-0.261719,0.656738,
5180,0.0576172,-0.262695,0.633301,
5200,0.0644531,-0.289063,0.610352,
5220,0.109863,-0.358398,0.597656,
5240,0.117676,-0.381348,0.54834,
5260,0.112305,-0.391602,0.498535,
5280,0.112793,-0.387695,0.502441,
5300,0.144531,-0.432129,0.503418,
5320,0.161621,-0.499023,0.495605,
5340,0.181641,-0.562988,0.512695,
5360,0.191895,-0.58252,0.532227,
5380,0.203125,-0.625488,0.538086,
5400,0.165527,-0.679199,0.501465,
5420,0.113281,-0.616699,0.496582,
5440,0.105469,-0.591797,0.573242,
5460,0.106445,-0.65625,0.620117,
5480,0.0493164,-0.783203,0.628418,
5500,-0.0371094,-0.744141,0.633301,
5520,-0.0795898,-0.683594,0.64502,
5540,-0.0786133,-0.699707,0.693359,
5560,-0.0957031,-0.797852,0.711426,
5580,-0.136719,-0.833984,0.738281,
5600,-0.154785,-0.799316,0.789551,
5620,-0.135742,-0.744141,0.823242,
5640,-0.176758,-0.758789,0.772461,
5660,-0.199219,-0.773926,0.80957,
5680,-0.181152,-0.756348,0.798828,
5700,-0.188965,-0.687988,0.877441,
5720,-0.164551,-0.677734,0.926758,
5740,-0.187988,-0.725098,0.939941,
5760,-0.248047,-0.679688,0.905273,
5780,-0.244141,-0.577637,0.936035,
5800,-0.246094,-0.522461,0.938965,
5820,-0.244629,-0.496582,0.943848,
5840,-0.225098,-0.46582,0.980957,
5860,-0.227051,-0.460449,0.95752,
5880,-0.224121,-0.427734,0.949219,
5900,-0.193848,-0.382324,0.933594,
5920,-0.157227,-0.378906,0.925293,
5940,-0.143066,-0.395996,0.900391,
5960,-0.112305,-0.431152,0.858398,
5980,-0.0605469,-0.409668,0.84668,
6000,-0.0297852,-0.431152,0.837891,
6020,0.000488281,-0.479492,0.808105,
6040,0.0395508,-0.507813,0.756348,
6060,0.0629883,-0.458008,0.697754,
6080,0.0776367,-0.350586,0.638672,
6100,0.0761719,-0.275391,0.611816,
6120,0.0932617,-0.321289,0.621582,
6140,0.111816,-0.336914,0.625977,
6160,0.131348,-0.340332,0.608398,
6180,0.145508,-0.37207,0.571777,
6200,0.154785,-0.414063,0.560059,
6220,0.176758,-0.423828,0.540527,
6240,0.141602,-0.414551,0.523926,
6260,0.108887,-0.413574,0.519043,
6280,0.111328,-0.513184,0.518555,
6300,0.121582,-0.562012,0.513672,
6320,0.127441,-0.570801,0.552734,
6340,0.126465,-0.581543,0.589844,
6360,0.0927734,-0.689453,0.548828,
6380,0.0473633,-0.75293,0.540527,
6400,0.0351563,-0.803223,0.564453,
6420,-0.0366211,-0.79248,0.608398,
6440,-0.0957031,-0.726074,0.688965,
6460,-0.17334,-0.593262,0.658203,
6480,-0.216797,-0.57666,0.697754,
6500,-0.253906,-0.515137,0.675293,
6520,-0.272461,-0.505859,0.794922,
6540,-0.239258,-0.548828,0.854004,
6560,-0.234863,-0.640137,0.850098,
6580,-0.29248,-0.654785,0.884766,
6600,-0.268066,-0.600098,0.907715,
6620,-0.258789,-0.568848,0.980469,
6640,-0.281738,-0.524902,0.98877,
6660,-0.29834,-0.492188,0.986816,
6680,-0.29248,-0.47168,0.947754,
6700,-0.339355,-0.38623,0.960938,
6720,-0.282715,-0.409668,1.03223,
6740,-0.257324,-0.380859,1.06836,
6760,-0.253418,-0.417969,1.04785,
6780,-0.228516,-0.415527,1.00244,
6800,-0.212891,-0.378418,0.975098,
6820,-0.180176,-0.384766,0.969727,
6840,-0.123047,-0.346191,0.955566,
6860,-0.0761719,-0.348145,0.916504,
6880,-0.0390625,-0.348145,0.871094,
6900,-0.012207,-0.347168,0.834473,
6920,0.00488281,-0.306152,0.779297,
6940,0.0136719,-0.275391,0.742188,
6960,0.034668,-0.279297,0.728516,
6980,0.0463867,-0.27832,0.696777,
7000,0.0537109,-0.28418,0.664063,
7020,0.0546875,-0.322754,0.666504,
7040,0.0673828,-0.354004,0.640137,
7060,0.101563,-0.374023,0.654785,
7080,0.134766,-0.403809,0.642578,
7100,0.123047,-0.409668,0.615234,
7120,0.100098,-0.438965,0.584473,
7140,0.123047,-0.538086,0.566895,
7160,0.176758,-0.580078,0.575195,
7180,0.221191,-0.571289,0.59082,
7200,0.200684,-0.552246,0.558594,
7220,0.168457,-0.626953,0.555176,
7240,0.174316,-0.706543,0.553711,
7260,0.147461,-0.695313,0.530273,
7280,0.108398,-0.597656,0.532227,
7300,0.0761719,-0.620117,0.535645,
7320,0.0625,-0.711426,0.543457,
7330,0.0341797,-0.783203,0.590332,
7350,0.0170898,-0.696777,0.664063,
7370,-0.0297852,-0.643555,0.701172,
7390,-0.103516,-0.730469,0.717773,
7410,-0.164063,-0.762207,0.746094,
7430,-0.199707,-0.710449,0.766602,
7450,-0.198242,-0.63916,0.823242,
7470,-0.184082,-0.664551,0.875977,
7490,-0.237793,-0.640625,0.881836,
7510,-0.271484,-0.539063,0.88623,
7530,-0.260742,-0.55127,0.958008,
7550,-0.226074,-0.570313,1.03076,
7570,-0.213379,-0.597168,1.03857,
7590,-0.244141,-0.509766,0.992676,
7610,-0.227539,-0.430176,0.999023,
7630,-0.220215,-0.40918,1,
7650,-0.195801,-0.402344,1.01025,
7670,-0.172363,-0.375977,0.990234,
7690,-0.162109,-0.370605,0.966797,
7710,-0.126953,-0.385742,0.934082,
7730,-0.0825195,-0.381836,0.901367,
7750,-0.0556641,-0.353516,0.869629,
7770,-0.0200195,-0.318848,0.82959,
7790,0.00683594,-0.31543,0.813477,
7810,0.0219727,-0.316406,0.77002,
7830,0.00244141,-0.314941,0.720703,
7850,0.0112305,-0.352051,0.67041,
7870,0.0571289,-0.357422,0.64502,
7890,0.0800781,-0.34375,0.587402,
7910,0.0966797,-0.36377,0.584961,
7930,0.121094,-0.402344,0.591797,
7950,0.117676,-0.456543,0.566895,
7970,0.102539,-0.449707,0.539551,
7990,0.119629,-0.453613,0.512207,
8010,0.162109,-0.515625,0.522461,
8030,0.193848,-0.580078,0.544922,
8050,0.185059,-0.615234,0.55957,
8070,0.13623,-0.628906,0.528809,
8090,0.0952148,-0.578613,0.544434,
8110,0.0961914,-0.619141,0.550781,
8130,0.0908203,-0.699219,0.572754,
8150,0.0366211,-0.700195,0.577148,
8170,-0.0234375,-0.683105,0.591797,
8190,-0.0239258,-0.692383,0.608887,
8210,-0.0629883,-0.713379,0.625,
8230,-0.0922852,-0.70752,0.654785,
8250,-0.111328,-0.777344,0.68457,
8270,-0.105957,-0.768066,0.699707,
8290,-0.129395,-0.746094,0.725098,
8310,-0.165527,-0.702637,0.804688,
8330,-0.196289,-0.652344,0.82373,
8350,-0.189941,-0.698242,0.862305,
8370,-0.177734,-0.756348,0.91748,
8390,-0.231445,-0.646484,0.91748,
8410,-0.254395,-0.533691,0.940918,
8430,-0.248047,-0.537109,1.00342,
8450,-0.23584,-0.557129,1.05957,
8470,-0.234863,-0.531738,1.0752,
8490,-0.243164,-0.512695,1.05859,
8510,-0.232422,-0.456055,1.04639,
8530,-0.210938,-0.433594,1.02783,
8550,-0.194336,-0.430664,1.01611,
8570,-0.168945,-0.417969,0.96582,
8590,-0.149414,-0.405762,0.919922,
8610,-0.11377,-0.395996,0.896484,
8630,-0.074707,-0.388184,0.854004,
8650,-0.0498047,-0.387207,0.799805,
8670,-0.0458984,-0.355469,0.726563,
8690,-0.0327148,-0.365723,0.677246,
8710,0.0141602,-0.375488,0.668945,
8730,0.0546875,-0.422852,0.636719,
8750,0.0419922,-0.37793,0.594238,
8770,0.0463867,-0.351563,0.561035,
8790,0.0688477,-0.401855,0.541016,
8810,0.105469,-0.423828,0.533691,
8830,0.114258,-0.449219,0.505371,
8850,0.0864258,-0.459473,0.491211,
8870,0.0869141,-0.483887,0.5,
8890,0.126465,-0.537598,0.518555,
8910,0.170898,-0.597168,0.504395,
8930,0.185059,-0.638184,0.541504,
8950,0.158203,-0.664551,0.546875,
8970,0.102051,-0.651855,0.543945,
8990,0.0849609,-0.644531,0.552246,
9010,0.0507813,-0.646973,0.541992,
9030,-0.0214844,-0.679199,0.547852,
9050,-0.0117188,-0.748535,0.612793,
9060,-0.0209961,-0.772461,0.631836,
9090,-0.0668945,-0.717285,0.656738,
9110,-0.121094,-0.666504,0.683594,
9130,-0.112793,-0.73291,0.753418,
9150,-0.128418,-0.782715,0.767578,
9170,-0.174805,-0.747559,0.785645,
9190,-0.208496,-0.663086,0.791016,
9210,-0.185059,-0.640625,0.842285,
9220,-0.182129,-0.717285,0.911133,
9240,-0.208496,-0.657715,0.92334,
9260,-0.22998,-0.540527,0.930664,
9280,-0.21582,-0.51709,0.981934,
9300,-0.232422,-0.52002,1.00391,
9320,-0.250488,-0.498047,1.01611,
9340,-0.233398,-0.434082,1.02588,
9360,-0.217285,-0.419434,1.04736,
9380,-0.215332,-0.431152,1.01465,
9400,-0.219727,-0.407715,0.981445,
9420,-0.178711,-0.387695,0.952637,
9440,-0.144043,-0.390137,0.913086,
9460,-0.115723,-0.373535,0.871582,
9480,-0.0957031,-0.365234,0.819824,
9500,-0.0664063,-0.35791,0.786621,
9520,-0.0415039,-0.357422,0.731445,
9540,-0.0185547,-0.362793,0.702637,
9560,0.0126953,-0.383301,0.660156,
9580,0.0332031,-0.39209,0.629395,
9600,0.0610352,-0.394043,0.629395,
9620,0.0810547,-0.405273,0.593262,
9640,0.0566406,-0.424316,0.554688,
9660,0.0439453,-0.469238,0.531738,
9680,0.0634766,-0.480957,0.510742,
9700,0.0927734,-0.505859,0.507324,
9720,0.112793,-0.54248,0.513184,
9740,0.0703125,-0.540527,0.460938,
9760,0.0957031,-0.68457,0.458496,
9780,0.149902,-0.727539,0.5,
9800,0.15625,-0.736328,0.518555,
9820,0.0668945,-0.669922,0.482422,
9840,-0.0249023,-0.677734,0.493652,
9860,-0.0258789,-0.75293,0.544434,
9880,0.00927734,-0.734375,0.592773,
9900,-0.0371094,-0.727051,0.611816,
9920,-0.102539,-0.780273,0.621094,
9940,-0.141602,-0.808594,0.67334,
9960,-0.16748,-0.779297,0.716797,
9980,-0.191406,-0.741699,0.723145,
10000,-0.224121,-0.748535,0.74707,
10020,-0.232422,-0.78125,0.780762,
10040,-0.23584,-0.750977,0.847656,
10060,-0.243652,-0.679199,0.930664,
10080,-0.200195,-0.733887,1.01025,
10100,-0.212402,-0.772949,1.00439,
10120,-0.299316,-0.657227,0.935547,
10140,-0.271973,-0.55127,0.986328,
10160,-0.243164,-0.521484,1.01563,
10180,-0.216309,-0.561523,1.00342,
10200,-0.234375,-0.541016,0.958008,
10220,-0.236816,-0.478027,0.914551,
10240,-0.187012,-0.435547,0.92041,
10260,-0.131836,-0.427246,0.894531,
10280,-0.11377,-0.425293,0.864258,
10300,-0.103027,-0.42627,0.813477,
10320,-0.0717773,-0.412598,0.782227,
10340,-0.0415039,-0.392578,0.764648,
10360,-0.0209961,-0.37207,0.743164,
10380,0,-0.352051,0.704102,
10400,-0.00195313,-0.334961,0.693848,
10420,0.00634766,-0.358887,0.659668,
10440,0.00927734,-0.351563,0.645996,
10460,0.0385742,-0.366211,0.638672,
10480,0.0712891,-0.371094,0.627441,
10500,0.0776367,-0.370605,0.600586,
10520,0.0566406,-0.390137,0.591797,
10540,0.0239258,-0.399902,0.554199,
10560,0.0537109,-0.410645,0.586426,
10580,0.0908203,-0.442871,0.566406,
10600,0.0649414,-0.454102,0.559082,
10620,0.0595703,-0.569824,0.558594,
10640,0.0595703,-0.605957,0.536133,
10660,0.0908203,-0.609375,0.558105,
10680,0.078125,-0.598633,0.568359,
10700,0.0566406,-0.678711,0.584473,
10720,0.0390625,-0.769531,0.59668,
10740,0.0800781,-0.817871,0.609375,
10760,0.0419922,-0.766113,0.592773,
10780,-0.0541992,-0.696289,0.593262,
10800,-0.100098,-0.680664,0.565918,
10820,-0.074707,-0.799805,0.594238,
10840,-0.110352,-0.839355,0.620605,
10860,-0.114258,-0.808105,0.666016,
10880,-0.0688477,-0.828125,0.736328,
10900,-0.0961914,-0.825195,0.769531,
10920,-0.134766,-0.871582,0.827148,
10940,-0.105957,-0.879395,0.867676,
10960,-0.12207,-0.844727,0.898926,
10980,-0.157227,-0.799805,0.898926,
11000,-0.194824,-0.758789,0.879395,
11020,-0.201172,-0.696289,0.895996,
11040,-0.182129,-0.646973,0.922852,
11060,-0.168457,-0.64502,0.929199,
11080,-0.171387,-0.624023,0.90332,
11100,-0.193359,-0.571777,0.887695,
11120,-0.175781,-0.508789,0.865234,
11140,-0.146484,-0.476074,0.85791,
11160,-0.109375,-0.456543,0.838867,
11180,-0.0839844,-0.481934,0.82373,
11200,-0.0698242,-0.46875,0.781738,
11220,-0.0703125,-0.425293,0.738281,
11240,-0.0478516,-0.394531,0.706055,
11260,-0.0180664,-0.381836,0.688477,
11280,0.000976563,-0.393066,0.681152,
11300,0.00976563,-0.368164,0.636719,
11320,0.0170898,-0.342285,0.603516,
11340,0.0195313,-0.359375,0.600098,
11360,0.0483398,-0.345703,0.615234,
11380,0.0756836,-0.370605,0.611328,
11400,0.097168,-0.40918,0.575195,
11420,0.0766602,-0.422363,0.534668,
11440,0.046875,-0.455078,0.554199,
11460,0.0644531,-0.529785,0.55127,
11480,0.103027,-0.544922,0.527344,
11500,0.106445,-0.56543,0.518555,
11520,0.0957031,-0.628418,0.515137,
11540,0.131348,-0.691895,0.558594,
11560,0.177734,-0.757813,0.550781,
11580,0.159668,-0.770996,0.54834,
11600,0.108398,-0.731934,0.558594,
11620,0.104004,-0.783203,0.552734,
11640,0.133789,-0.854492,0.605469,
11660,0.103516,-0.749023,0.590332,
11680,0.0136719,-0.700195,0.556641,
11700,-0.0195313,-0.705566,0.596191,
11720,-0.0288086,-0.83252,0.646484,
11740,-0.0644531,-0.895508,0.71582,
11760,-0.0449219,-0.934082,0.82959,
11780,-0.0366211,-0.893066,0.870117,
11800,-0.09375,-0.818848,0.918945,
11820,-0.100586,-0.78125,0.941895,
11840,-0.183594,-0.767578,0.915039,
11860,-0.227539,-0.745605,0.95752,
11880,-0.205566,-0.70752,0.986816,
11900,-0.171387,-0.678223,0.999023,
11920,-0.173828,-0.645996,0.95459,
11940,-0.192871,-0.583008,0.907715,
11960,-0.189941,-0.529785,0.875,
11980,-0.164551,-0.509766,0.870605,
12000,-0.14209,-0.510742,0.832031,
12020,-0.128906,-0.455566,0.780273,
12040,-0.0966797,-0.419922,0.73584,
12060,-0.0727539,-0.413574,0.705566,
12080,-0.0629883,-0.391602,0.666016,
12100,-0.050293,-0.384277,0.665039,
12120,-0.00683594,-0.357422,0.64209,
12140,0.0332031,-0.375488,0.625,
12160,0.0424805,-0.401855,0.610352,
12180,0.065918,-0.431641,0.593262,
12200,0.0708008,-0.455566,0.544434,
12220,0.0532227,-0.447266,0.529297,
12240,0.0561523,-0.440918,0.495605,
12260,0.065918,-0.473145,0.508301,
12280,0.0810547,-0.518066,0.492188,
12300,0.0878906,-0.601074,0.488281,
12320,0.113281,-0.674316,0.503418,
12340,0.17334,-0.674316,0.525879,
12360,0.160156,-0.712891,0.501465,
12380,0.0732422,-0.737793,0.464355,
12400,0.0600586,-0.729492,0.483398,
12420,0.0791016,-0.743652,0.536133,
12440,0.0195313,-0.73877,0.548828,
12450,-0.043457,-0.769531,0.601563,
12470,-0.0507813,-0.794434,0.65918,
12490,-0.0976563,-0.812988,0.63916,
12510,-0.148438,-0.858398,0.693848,
12530,-0.147949,-0.873535,0.743652,
12550,-0.117676,-0.867676,0.739746,
12570,-0.100098,-0.849609,0.770508,
12590,-0.162598,-0.783203,0.834961,
12610,-0.200195,-0.704102,0.89209,
12630,-0.214844,-0.691895,0.93457,
12650,-0.28418,-0.603516,0.932617,
12670,-0.292969,-0.578613,0.962891,
12690,-0.293457,-0.553223,1,
12710,-0.319336,-0.506836,1.01465,
12730,-0.336426,-0.4375,1.01758,
12750,-0.319336,-0.472656,1.02344,
12770,-0.297852,-0.460449,1.00049,
12790,-0.22998,-0.420898,0.969238,
12810,-0.21582,-0.399414,0.935059,
12830,-0.183105,-0.402344,0.899902,
12850,-0.131836,-0.395996,0.837891,
12870,-0.110352,-0.375,0.786133,
12890,-0.0844727,-0.358887,0.734863,
12910,-0.0458984,-0.34082,0.687988,
12930,-0.0302734,-0.342773,0.632813,
12950,-0.027832,-0.362793,0.595215,
12970,-0.00292969,-0.369629,0.55127,
12990,0.0141602,-0.369141,0.526367,
13010,0.043457,-0.393066,0.52002,
13030,0.0424805,-0.500488,0.484863,
13050,0.0244141,-0.507324,0.452148,
13070,0.0405273,-0.549805,0.446777,
13090,0.0957031,-0.568848,0.486816,
13110,0.108398,-0.634277,0.472168,
13130,0.0917969,-0.722168,0.485352,
13150,0.0991211,-0.736816,0.478516,
13170,0.10498,-0.696289,0.505371,
13190,0.0522461,-0.654785,0.480469,
13210,-0.0229492,-0.746582,0.495117,
13230,-0.0507813,-0.842285,0.500488,
13250,-0.0151367,-0.844238,0.556641,
13270,-0.00683594,-0.741699,0.580566,
13290,-0.0727539,-0.762207,0.630371,
13310,-0.128418,-0.877441,0.681152,
13330,-0.161621,-0.866699,0.715332,
13350,-0.221191,-0.78418,0.725098,
13370,-0.26123,-0.742188,0.738281,
13390,-0.230957,-0.792969,0.76709,
13410,-0.206543,-0.857422,0.862305,
13430,-0.176758,-0.844727,0.898926,
13450,-0.200684,-0.807617,0.902344,
13470,-0.221191,-0.745605,0.866211,
13490,-0.229004,-0.658691,0.87793,
13510,-0.218262,-0.632324,0.925781,
13530,-0.242676,-0.599121,0.932617,
13550,-0.251953,-0.567871,0.898926,
13570,-0.257324,-0.517578,0.925293,
13590,-0.23291,-0.502441,0.943848,
13610,-0.227051,-0.459961,0.945801,
13630,-0.223145,-0.400879,0.919434,
13650,-0.187012,-0.398438,0.919922,
13670,-0.15918,-0.38916,0.880371,
13690,-0.169922,-0.378418,0.839844,
13710,-0.148926,-0.355469,0.769043,
13730,-0.119629,-0.361816,0.746094,
13750,-0.0727539,-0.359375,0.70459,
13770,-0.0761719,-0.33252,0.640625,
13790,-0.0400391,-0.333008,0.612793,
13810,0.00292969,-0.368652,0.601074,
13830,0.0644531,-0.410645,0.592773,
13850,0.0742188,-0.430176,0.549805,
13870,0.0478516,-0.422852,0.488281,
13890,0.0361328,-0.469238,0.499023,
13910,0.0805664,-0.500977,0.527832,
13930,0.126953,-0.526367,0.527832,
13950,0.0878906,-0.610352,0.53125,
13970,0.0703125,-0.693848,0.504395,
13990,0.0610352,-0.728027,0.52002,
14010,0.0786133,-0.713867,0.516602,
14030,0.0610352,-0.763184,0.543457,
14050,0.0463867,-0.862793,0.555176,
14070,0.0244141,-0.876953,0.57373,
14090,-0.012207,-0.751953,0.53125,
14110,-0.0615234,-0.750977,0.578613,
14130,-0.0957031,-0.800781,0.630371,
14150,-0.148926,-0.773926,0.712891,
14170,-0.155273,-0.67334,0.769043,
14190,-0.140625,-0.713379,0.85498,
14210,-0.134277,-0.82373,0.90332,
14230,-0.19043,-0.746582,0.884277,
14250,-0.219238,-0.579102,0.929688,
14270,-0.19873,-0.511719,0.982422,
14290,-0.208008,-0.532715,1.05371,
14310,-0.230469,-0.572266,1.04346,
14330,-0.283203,-0.467285,0.97998,
14340,-0.251953,-0.393066,1.00293,
14360,-0.222168,-0.375488,0.98877,
14380,-0.208984,-0.390625,0.963379,
14400,-0.13623,-0.428711,0.956055,
14420,-0.104004,-0.449219,0.912109,
14440,-0.09375,-0.404785,0.859863,
14460,-0.0688477,-0.348145,0.811035,
14480,-0.0561523,-0.3125,0.75293,
14500,-0.0405273,-0.314453,0.722168,
14520,-0.00488281,-0.313477,0.697754,
14540,0.00488281,-0.308105,0.664063,
14560,0.0166016,-0.310059,0.631348,
14580,0.0356445,-0.337402,0.580566,
14600,0.0717773,-0.397461,0.564941,
14620,0.111816,-0.414063,0.559082,
14640,0.126465,-0.394043,0.542969,
14660,0.109375,-0.395508,0.535156,
14680,0.107422,-0.46875,0.539063,
14700,0.128906,-0.555176,0.530762,
14720,0.134766,-0.592773,0.492676,
14740,0.132813,-0.699707,0.494629,
14760,0.169434,-0.780273,0.577148,
14780,0.187012,-0.717285,0.642578,
14800,0.059082,-0.599121,0.498047,
14820,-0.09375,-0.631836,0.483887,
14840,-0.108887,-0.809082,0.566406,
14860,-0.0742188,-0.864746,0.629395,
14880,-0.105469,-0.833008,0.623535,
14900,-0.147461,-0.731934,0.665039,
14920,-0.123047,-0.743652,0.757813,
14940,-0.121582,-0.844727,0.790527,
14960,-0.16748,-0.851563,0.8125,
14980,-0.165527,-0.788086,0.836914,
15000,-0.145996,-0.725586,0.837402,
15020,-0.147461,-0.71875,0.868164,
15040,-0.161621,-0.699219,0.895508,
15060,-0.205566,-0.641602,0.878906,
15080,-0.228516,-0.563477,0.891602,
15100,-0.215332,-0.485352,0.937988,
15120,-0.236816,-0.435547,0.916992,
15140,-0.272461,-0.355469,0.902832,
15160,-0.252441,-0.322266,0.90332,
15180,-0.223633,-0.316406,0.933594,
15200,-0.152344,-0.334473,0.936523,
15220,-0.132813,-0.345215,0.928223,
15240,-0.0986328,-0.380859,0.919434,
15260,-0.0771484,-0.375977,0.880859,
15280,-0.0791016,-0.317871,0.839355,
15300,-0.0620117,-0.300293,0.813477,
15320,-0.0483398,-0.264648,0.782715,
15340,-0.0522461,-0.257813,0.736816,
15360,-0.0722656,-0.271484,0.676758,
15380,-0.0625,-0.316895,0.652832,
15400,0.0395508,-0.405762,0.69043,
15420,0.0947266,-0.40918,0.671387,
15440,0.0927734,-0.386719,0.654297,
15460,0.081543,-0.396973,0.618652,
15480,0.0678711,-0.45166,0.604004,
15500,0.0888672,-0.494629,0.597168,
15520,0.133301,-0.560547,0.607422,
15540,0.161133,-0.595703,0.591309,
15560,0.164551,-0.607422,0.591797,
15580,0.16748,-0.634277,0.586426,
15600,0.168945,-0.665527,0.577148,
15620,0.144531,-0.715332,0.561035,
15640,0.113281,-0.741699,0.51416,
15660,0.0473633,-0.793945,0.510254,
15680,0.0170898,-0.76123,0.524414,
15700,-0.0102539,-0.724609,0.537598,
15720,-0.034668,-0.718262,0.580566,
15740,-0.0546875,-0.756348,0.646973,
15760,-0.0688477,-0.786621,0.705566,
15780,-0.111816,-0.765625,0.728027,
15800,-0.145508,-0.709473,0.76416,
15820,-0.141113,-0.6875,0.805176,
15840,-0.151855,-0.733887,0.858887,
15860,-0.146484,-0.724609,0.852539,
15880,-0.160156,-0.694824,0.852539,
15900,-0.174316,-0.612305,0.875977,
15920,-0.204102,-0.531738,0.942871,
15940,-0.229492,-0.496094,0.913086,
15960,-0.249023,-0.412598,0.902344,
15980,-0.238281,-0.378906,0.911621,
16000,-0.225098,-0.368652,0.933594,
16020,-0.209473,-0.380371,0.95166,
16040,-0.193359,-0.38916,0.961426,
16060,-0.171387,-0.371094,0.94043,
16080,-0.149902,-0.340332,0.919922,
16100,-0.140137,-0.306152,0.89209,
16120,-0.120117,-0.306641,0.894531,
16140,-0.104492,-0.317383,0.849609,
16160,-0.0791016,-0.338867,0.828613,
16180,-0.0458984,-0.360352,0.796387,
16200,-0.0297852,-0.366211,0.755371,
16220,-0.00878906,-0.378418,0.69043,
16240,0.0136719,-0.392578,0.655762,
16260,0.0537109,-0.450195,0.628906,
16280,0.0932617,-0.466309,0.603027,
16300,0.101074,-0.480469,0.563965,
16320,0.122559,-0.508301,0.546387,
16340,0.154297,-0.518555,0.520508,
16360,0.185547,-0.547363,0.51123,
16380,0.206543,-0.631348,0.505371,
16400,0.219238,-0.700684,0.493652,
16420,0.228516,-0.698242,0.496582,
16440,0.218262,-0.66748,0.528809,
16460,0.160156,-0.682617,0.504883,
16480,0.109863,-0.700684,0.513672,
16500,0.0483398,-0.727051,0.527344,
16520,0.0732422,-0.786621,0.55957,
16540,0.0712891,-0.768066,0.584961,
16560,-0.0078125,-0.836914,0.587402,
16580,-0.065918,-0.841309,0.61377,
16600,-0.0986328,-0.805176,0.685547,
16620,-0.13623,-0.713379,0.733398,
16640,-0.162109,-0.632813,0.727539,
16660,-0.182129,-0.599609,0.770508,
16680,-0.155273,-0.672363,0.848633,
16700,-0.137695,-0.67627,0.875,
16720,-0.129883,-0.67627,0.888184,
16740,-0.185059,-0.601563,0.851074,
16760,-0.178711,-0.497559,0.919922,
16780,-0.120605,-0.491211,1.05029,
16800,-0.139648,-0.588867,1.04688,
16820,-0.233398,-0.50293,0.949219,
16840,-0.251465,-0.38623,0.92041,
16860,-0.208984,-0.311523,0.913574,
16880,-0.209473,-0.276855,0.907227,
16900,-0.194824,-0.319336,0.897461,
16920,-0.144531,-0.394531,0.871094,
16940,-0.0942383,-0.430176,0.848145,
16960,-0.0644531,-0.398438,0.802734,
16980,-0.0419922,-0.347168,0.779785,
17000,-0.00390625,-0.35791,0.761719,
17020,0.0126953,-0.379395,0.742676,
17040,0.0371094,-0.391602,0.711426,
17060,0.0405273,-0.442383,0.663574,
17080,0.0634766,-0.486328,0.620117,
17100,0.115234,-0.503418,0.596191,
17120,0.157715,-0.514648,0.571777,
17140,0.14502,-0.515625,0.536133,
17160,0.119629,-0.492676,0.523438,
17180,0.140137,-0.554199,0.530762,
17200,0.191406,-0.639648,0.512207,
17220,0.185059,-0.662109,0.524902,
17240,0.163086,-0.631836,0.507324,
17260,0.16748,-0.669922,0.538574,
17280,0.166016,-0.735352,0.517578,
17300,0.135254,-0.751953,0.533203,
17320,0.105957,-0.724121,0.56543,
17340,0.0864258,-0.743652,0.563965,
17360,0.0620117,-0.836914,0.598145,
17380,0.0688477,-0.92627,0.614258,
17400,-0.0078125,-0.878418,0.595215,
17420,-0.0922852,-0.756348,0.568359,
17440,-0.123047,-0.666016,0.600586,
17460,-0.0981445,-0.674805,0.687012,
17480,-0.153809,-0.676758,0.749512,
17500,-0.197266,-0.67041,0.830078,
17520,-0.193848,-0.651855,0.869629,
17540,-0.208496,-0.602539,0.852051,
17560,-0.229492,-0.567871,0.875488,
17570,-0.231445,-0.508789,0.869141,
17590,-0.253418,-0.466797,0.885742,
17610,-0.244629,-0.44043,0.904785,
17630,-0.258789,-0.405273,0.929688,
17650,-0.243164,-0.348633,0.937988,
17670,-0.225098,-0.325684,0.92041,
17690,-0.22998,-0.34668,0.905762,
17710,-0.20166,-0.366699,0.922852,
17730,-0.150391,-0.337402,0.925293,
17750,-0.130859,-0.320801,0.905762,
17770,-0.146973,-0.333008,0.831055,
17790,-0.148926,-0.38623,0.812988,
17810,-0.0717773,-0.449707,0.812988,
17830,0.0112305,-0.470215,0.783691,
17850,0.0395508,-0.449219,0.745117,
17870,0.0683594,-0.43457,0.703125,
17890,0.101563,-0.494141,0.646973,
17910,0.118164,-0.53125,0.609863,
17930,0.15332,-0.53418,0.620605,
17950,0.174805,-0.505371,0.614258,
17970,0.154785,-0.552246,0.538086,
17990,0.108887,-0.623535,0.486816,
18010,0.0888672,-0.690918,0.480469,
18030,0.120117,-0.727051,0.489258,
18050,0.127441,-0.746094,0.494629,
18070,0.0888672,-0.777832,0.478516,
18090,0.00927734,-0.733887,0.466309,
18110,-0.00341797,-0.723145,0.46582,
18130,0.0136719,-0.791504,0.466797,
18150,-0.015625,-0.85791,0.42041,
18170,-0.0664063,-0.785645,0.467773,
18190,-0.0571289,-0.702148,0.534668,
18210,-0.0771484,-0.664551,0.586426,
18230,-0.114258,-0.770996,0.638184,
18250,-0.137695,-0.881836,0.693848,
18270,-0.136719,-0.890137,0.726563,
18290,-0.144043,-0.769531,0.693848,
18310,-0.175781,-0.623047,0.724609,
18330,-0.214355,-0.664063,0.710938,
18350,-0.245605,-0.66748,0.743652,
18370,-0.256348,-0.520996,0.774414,
18390,-0.229004,-0.51123,0.874512,
18410,-0.233398,-0.554688,0.902344,
18430,-0.277344,-0.485352,0.88916,
18450,-0.260742,-0.408691,0.904297,
18470,-0.226563,-0.396484,0.959961,
18490,-0.206055,-0.428223,0.973633,
18510,-0.205078,-0.433594,0.962402,
18530,-0.229492,-0.458984,0.94043,
18550,-0.216797,-0.501953,0.915527,
18570,-0.15625,-0.449707,0.874023,
18590,-0.0791016,-0.453613,0.868164,
18610,-0.019043,-0.484375,0.804688,
18630,-0.0351563,-0.48877,0.759277,
18650,-0.0390625,-0.510742,0.711914,
18670,0.00439453,-0.556641,0.682617,
18690,0.0795898,-0.532715,0.633789,
18710,0.0869141,-0.519531,0.588379,
18730,0.0737305,-0.523438,0.528809,
18750,0.0600586,-0.540039,0.495117,
18770,0.108887,-0.59082,0.467285,
18790,0.124023,-0.616211,0.45166,
18810,0.151855,-0.625,0.443848,
18830,0.163086,-0.631836,0.430176,
18850,0.156738,-0.658203,0.431152,
18870,0.166992,-0.727051,0.42627,
18890,0.180664,-0.793945,0.473633,
18910,0.16748,-0.799805,0.477539,
18930,0.0825195,-0.806152,0.489258,
18950,0.0717773,-0.818848,0.534668,
18970,0.0249023,-0.776367,0.51709,
18990,-0.0629883,-0.768555,0.48584,
19010,-0.120117,-0.806641,0.503906,
19030,-0.0849609,-0.890625,0.536133,
19050,-0.108398,-0.881836,0.549316,
19070,-0.134277,-0.808594,0.594238,
19090,-0.132324,-0.80127,0.618652,
19110,-0.0869141,-0.859375,0.645996,
19130,-0.0878906,-0.896484,0.678711,
19150,-0.105957,-0.839844,0.687012,
19170,-0.134766,-0.73584,0.722656,
19190,-0.118164,-0.710449,0.762695,
19210,-0.174805,-0.679688,0.76709,
19230,-0.204102,-0.686035,0.814453,
19250,-0.201172,-0.680664,0.848145,
19270,-0.23584,-0.556152,0.879395,
19290,-0.228027,-0.523926,0.911621,
19300,-0.260742,-0.538086,0.902832,
19330,-0.26123,-0.525879,0.875,
19350,-0.231445,-0.531738,0.871582,
19370,-0.184082,-0.51709,0.873047,
19390,-0.13916,-0.552246,0.852051,
19410,-0.0913086,-0.549316,0.816895,
19430,-0.0654297,-0.529785,0.781738,
19450,-0.0595703,-0.482422,0.73584,
19460,-0.0332031,-0.491699,0.718262,
19480,0.0141602,-0.54541,0.67334,
19500,0.0332031,-0.550293,0.629395,
19520,0.0478516,-0.548828,0.594727,
19540,0.0673828,-0.570801,0.583496,
19560,0.0883789,-0.553711,0.544922,
19580,0.0981445,-0.549316,0.513672,
19600,0.0761719,-0.555176,0.464844,
19620,0.0522461,-0.580566,0.438477,
19640,0.0737305,-0.63623,0.416992,
19660,0.103516,-0.69873,0.375977,
19680,0.162598,-0.731445,0.380371,
19700,0.197266,-0.743652,0.416016,
19720,0.173828,-0.745117,0.42334,
19740,0.14502,-0.760742,0.436523,
19760,0.107422,-0.797363,0.455566,
19780,0.0556641,-0.802734,0.45166,
19800,-0.00878906,-0.804688,0.484863,
19820,-0.0078125,-0.893555,0.542969,
19840,-0.0415039,-0.87207,0.572266,
19860,-0.11377,-0.821289,0.570313,
19880,-0.193359,-0.749512,0.609863,
19900,-0.172852,-0.779297,0.684082,
19920,-0.163086,-0.859375,0.727539,
19940,-0.19873,-0.854492,0.722168,
19960,-0.240234,-0.741211,0.732422,
19980,-0.212891,-0.700684,0.791992,
20000,-0.166504,-0.725098,0.826172,
20020,-0.195801,-0.758789,0.848633,
20040,-0.195313,-0.70166,0.839355,
20060,-0.223145,-0.604492,0.842773,
20080,-0.23877,-0.527344,0.825195,
20100,-0.214355,-0.490234,0.830566,
20120,-0.182129,-0.510742,0.851563,
20140,-0.144531,-0.540039,0.853027,
20160,-0.131348,-0.523926,0.84375,
20180,-0.129395,-0.467285,0.817383,
20200,-0.103516,-0.455566,0.8125,
20220,-0.0595703,-0.48584,0.794922,
20240,-0.0488281,-0.495605,0.73584,
20260,-0.0302734,-0.509766,0.692383,
20280,0.00634766,-0.520508,0.686523,
20300,0.0390625,-0.51123,0.638184,
20320,0.0400391,-0.511719,0.585449,
20340,0.0263672,-0.563477,0.563477,
20360,0.0507813,-0.606445,0.565918,
20380,0.0810547,-0.601563,0.519043,
20400,0.0800781,-0.62207,0.47998,
20420,0.0878906,-0.666016,0.428711,
20440,0.117188,-0.726563,0.435059,
20460,0.166992,-0.802734,0.455566,
20480,0.166016,-0.80127,0.467285,
20500,0.119629,-0.73877,0.46582,
20520,0.0541992,-0.76123,0.455078,
20540,0.0380859,-0.807617,0.469727,
20560,-0.027832,-0.864746,0.457031,
20580,-0.0668945,-0.835938,0.465332,
20600,-0.118652,-0.713867,0.467773,
20620,-0.118652,-0.681641,0.512207,
20640,-0.126465,-0.757813,0.537598,
20660,-0.154785,-0.878418,0.610352,
20680,-0.146973,-0.94043,0.689453,
20700,-0.118652,-0.896973,0.692871,
20720,-0.140137,-0.792969,0.664551,
20740,-0.0996094,-0.754883,0.702637,
20760,-0.0878906,-0.775391,0.739258,
20780,-0.137207,-0.742188,0.760254,
20800,-0.214844,-0.64502,0.773926,
20820,-0.209961,-0.612305,0.835938,
20840,-0.1875,-0.609863,0.888672,
20860,-0.214355,-0.569336,0.856934,
20880,-0.262695,-0.525391,0.880371,
20900,-0.237793,-0.523438,0.92334,
20920,-0.187988,-0.553223,0.930176,
20940,-0.203125,-0.563477,0.902832,
20960,-0.177734,-0.552246,0.900879,
20980,-0.137695,-0.538086,0.875,
21000,-0.134277,-0.497559,0.842773,
21020,-0.144531,-0.458984,0.79248,
21040,-0.119629,-0.484375,0.76709,
21060,-0.0649414,-0.498535,0.746094,
21080,-0.0200195,-0.514648,0.71875,
21100,-0.000488281,-0.504883,0.676758,
21120,-0.00341797,-0.471191,0.623047,
21140,0.00878906,-0.459473,0.592773,
21160,0.0419922,-0.487305,0.555664,
21180,0.0805664,-0.522949,0.535156,
21200,0.0976563,-0.539063,0.482422,
21220,0.0820313,-0.523438,0.469238,
21240,0.0966797,-0.544434,0.462891,
21260,0.163086,-0.593262,0.477539,
21280,0.192871,-0.619141,0.473145,
21300,0.165039,-0.619141,0.46875,
21320,0.147949,-0.693359,0.47168,
21340,0.177246,-0.777344,0.462402,
21360,0.163086,-0.785156,0.472168,
21380,0.0830078,-0.736816,0.493652,
21400,0.0341797,-0.737305,0.511719,
21420,0.0380859,-0.836426,0.540527,
21440,-0.00878906,-0.900391,0.520508,
21460,-0.0654297,-0.904785,0.542969,
21480,-0.0556641,-0.899414,0.554199,
21500,-0.0732422,-0.895996,0.606934,
21520,-0.13623,-0.838867,0.577148,
21540,-0.163574,-0.870605,0.710449,
21560,-0.122559,-0.82373,0.796875,
21580,-0.0927734,-0.787598,0.838867,
21600,-0.12793,-0.79541,0.850098,
21620,-0.179688,-0.759766,0.792969,
21640,-0.188965,-0.672363,0.821777,
21660,-0.1875,-0.632813,0.853027,
21680,-0.229004,-0.567383,0.798828,
21700,-0.258789,-0.499512,0.832031,
21720,-0.234375,-0.461914,0.882813,
21740,-0.212891,-0.472656,0.933594,
21760,-0.208984,-0.493652,0.921875,
21780,-0.20459,-0.438477,0.916992,
21800,-0.16748,-0.411133,0.910156,
21820,-0.101563,-0.40625,0.899414,
21840,-0.0527344,-0.42627,0.854004,
21860,-0.059082,-0.429199,0.811523,
21880,-0.0415039,-0.441406,0.769531,
21900,-0.0297852,-0.402832,0.702637,
21920,0.00146484,-0.372559,0.65625,
21940,0.00683594,-0.377441,0.610352,
21960,0.0214844,-0.40625,0.56543,
21980,0.0532227,-0.460938,0.522949,
22000,0.0820313,-0.458496,0.489746,
22020,0.126465,-0.484863,0.499023,
22040,0.1875,-0.568848,0.510254,
22060,0.189941,-0.612793,0.48291,
22080,0.162109,-0.682129,0.468262,
22100,0.167969,-0.725098,0.492676,
22120,0.212891,-0.736816,0.506836,
22140,0.1875,-0.74707,0.502441,
22160,0.103027,-0.722168,0.460938,
22180,0.00683594,-0.746094,0.475098,
22200,0.0078125,-0.788574,0.501953,
22220,0.00244141,-0.79541,0.525879,
22240,-0.0566406,-0.71875,0.525879,
22260,-0.113281,-0.76416,0.567383,
22280,-0.0410156,-0.878418,0.64209,
22300,-0.0307617,-0.952148,0.689453,
22320,-0.0864258,-0.914551,0.706543,
22340,-0.11377,-0.798828,0.717285,
22360,-0.0478516,-0.902832,0.844727,
22380,-0.0913086,-0.874023,0.762207,
22400,-0.184082,-0.680176,0.744141,
22420,-0.196777,-0.586914,0.791016,
22440,-0.142578,-0.641113,0.873047,
22460,-0.171875,-0.62207,0.894531,
22480,-0.264648,-0.483398,0.864746,
22500,-0.28125,-0.375488,0.900391,
22520,-0.233398,-0.334473,0.934082,
22540,-0.218262,-0.380859,0.960449,
22560,-0.210938,-0.421387,0.951172,
22580,-0.198242,-0.397949,0.935059,
22600,-0.175293,-0.36377,0.92041,
22620,-0.145996,-0.370605,0.917969,
22640,-0.115234,-0.375977,0.86377,
22660,-0.118652,-0.376953,0.82959,
22680,-0.0727539,-0.410645,0.810059,
22700,-0.0517578,-0.40625,0.756836,
22710,-0.0332031,-0.380859,0.696289,
22730,-0.00878906,-0.395508,0.662109,
22750,0.0429688,-0.456055,0.64502,
22770,0.0600586,-0.472656,0.616211,
22790,0.078125,-0.476563,0.575684,
22810,0.100098,-0.498535,0.559082,
22830,0.126465,-0.533203,0.539551,
22850,0.125977,-0.564453,0.519531,
22870,0.123535,-0.581543,0.483398,
22890,0.12793,-0.584961,0.48584,
22910,0.17627,-0.618164,0.487305,
22930,0.193359,-0.688477,0.476074,
22950,0.179199,-0.715332,0.474609,
22970,0.133789,-0.699219,0.489258,
22990,0.0922852,-0.740723,0.480957,
23010,0.13916,-0.802734,0.555176,
23030,0.0874023,-0.802246,0.493652,
23050,0.019043,-0.812012,0.529297,
23070,0.0429688,-0.875488,0.600586,
23090,0.0673828,-0.935059,0.602051,
23110,-0.00439453,-0.899414,0.538574,
23130,-0.097168,-0.781738,0.556152,
23150,-0.110352,-0.650391,0.651367,
23170,-0.0942383,-0.665527,0.707031,
23190,-0.164063,-0.752441,0.77002,
23210,-0.236328,-0.683105,0.749023,
23230,-0.238281,-0.578613,0.805176,
23250,-0.226074,-0.578613,0.869629,
23270,-0.263672,-0.595703,0.922363,
23290,-0.293945,-0.586426,0.921875,
23310,-0.328125,-0.497559,0.909668,
23330,-0.279785,-0.422363,0.974609,
23350,-0.249512,-0.380371,0.930664,
23370,-0.292969,-0.370117,0.911133,
23390,-0.291016,-0.401855,0.908691,
23410,-0.286133,-0.310059,0.898926,
23430,-0.248535,-0.349609,0.895508,
23450,-0.181152,-0.415527,0.868652,
23470,-0.11084,-0.447754,0.837891,
23490,-0.0668945,-0.47168,0.813477,
23510,-0.0297852,-0.421875,0.781738,
23530,0.0263672,-0.412598,0.761719,
23550,0.0512695,-0.422852,0.738281,
23570,0.0786133,-0.444824,0.729492,
23590,0.101563,-0.465332,0.707031,
23610,0.0800781,-0.478027,0.668945,
23630,0.0854492,-0.5,0.640625,
23650,0.106445,-0.486328,0.621094,
23670,0.111328,-0.520996,0.602051,
23690,0.103516,-0.568359,0.570801,
23710,0.116211,-0.584473,0.547363,
23730,0.159668,-0.601074,0.547363,
23750,0.191406,-0.65332,0.547363,
23770,0.166504,-0.652832,0.518066,
23790,0.127441,-0.678223,0.494141,
23810,0.134277,-0.773926,0.510254,
23830,0.177246,-0.826172,0.544434,
23850,0.15918,-0.818359,0.52832,
23870,0.0776367,-0.772949,0.5,
23890,0.0283203,-0.726563,0.499023,
23910,-0.00537109,-0.737793,0.500977,
23930,-0.0205078,-0.777344,0.530762,
23950,-0.0532227,-0.80127,0.566406,
23970,-0.0991211,-0.788086,0.62207,
23990,-0.138184,-0.799316,0.651367,
24010,-0.158691,-0.695801,0.712402,
24030,-0.165039,-0.640625,0.716797,
24050,-0.21582,-0.666504,0.737305,
24070,-0.231445,-0.724121,0.766602,
24090,-0.240723,-0.708008,0.760254,
24110,-0.20752,-0.560059,0.806641,
24130,-0.208984,-0.478027,0.851563,
24150,-0.219727,-0.484863,0.910645,
24170,-0.215332,-0.496094,0.980469,
24190,-0.242188,-0.417969,0.975586,
24210,-0.213867,-0.414063,0.957031,
24230,-0.20166,-0.401367,0.916504,
24250,-0.185059,-0.423828,0.896484,
24270,-0.172852,-0.453613,0.902832,
24290,-0.144043,-0.418945,0.90332,
24310,-0.129395,-0.365723,0.87207,
24330,-0.129883,-0.381348,0.847168,
24350,-0.0957031,-0.40332,0.830566,
24370,-0.0776367,-0.390625,0.796387,
24390,-0.0512695,-0.408691,0.773438,
24410,-0.03125,-0.400879,0.741211,
24430,-0.0136719,-0.400391,0.696777,
24450,0.00878906,-0.4375,0.695801,
24470,0.0458984,-0.459961,0.664551,
24490,0.0717773,-0.449707,0.646973,
24510,0.0986328,-0.469727,0.625,
24530,0.0917969,-0.467773,0.588867,
24550,0.100586,-0.503906,0.553711,
24570,0.137695,-0.584961,0.547852,
24590,0.202148,-0.622559,0.550781,
24600,0.224609,-0.65918,0.561035,
24620,0.204102,-0.625977,0.544434,
24640,0.125488,-0.638672,0.522949,
24660,0.0488281,-0.665039,0.497559,
24680,0.0517578,-0.733887,0.499023,
24700,0.0947266,-0.748535,0.519531,
24720,0.0922852,-0.789063,0.515137,
24740,0.0810547,-0.82959,0.549805,
24760,0.0678711,-0.824219,0.532715,
24780,0.0209961,-0.785645,0.532227,
24800,-0.0141602,-0.806641,0.604492,
24820,-0.0161133,-0.797852,0.675781,
24840,-0.0488281,-0.796875,0.682129,
24860,-0.111328,-0.766113,0.68457,
24880,-0.133789,-0.723633,0.667969,
24900,-0.102539,-0.771973,0.750977,
24920,-0.0634766,-0.779785,0.786133,
24940,-0.0771484,-0.746582,0.824219,
24960,-0.112793,-0.706055,0.804199,
24980,-0.145508,-0.616211,0.818848,
25000,-0.165039,-0.556152,0.848633,
25020,-0.176758,-0.523926,0.862305,
25040,-0.213379,-0.508789,0.862793,
25060,-0.255371,-0.439453,0.830566,
25080,-0.304199,-0.30957,0.858398,
25100,-0.295898,-0.299316,0.883789,
25120,-0.251465,-0.375977,0.882813,
25140,-0.245117,-0.432617,0.903809,
25160,-0.237305,-0.389648,0.870117,
25180,-0.201172,-0.421387,0.876465,
25200,-0.164551,-0.433594,0.850098,
25220,-0.120117,-0.455566,0.837402,
25240,-0.0830078,-0.458496,0.808105,
25260,-0.0458984,-0.44873,0.779297,
25280,-0.00195313,-0.455078,0.743652,
25300,0.0493164,-0.466797,0.725586,
25320,0.0996094,-0.461426,0.696289,
25340,0.119629,-0.466309,0.639648,
25360,0.137207,-0.462891,0.621094,
25380,0.191895,-0.477051,0.617188,
25400,0.235352,-0.532715,0.598145,
25420,0.225586,-0.538574,0.575684,
25440,0.191895,-0.543457,0.576172,
25460,0.227051,-0.578613,0.560547,
25480,0.235352,-0.630371,0.557129,
25500,0.253906,-0.645996,0.561035,
25520,0.25,-0.660645,0.578613,
25540,0.203613,-0.664551,0.556641,
25560,0.0771484,-0.672363,0.54248,
25580,-0.0263672,-0.706055,0.577637,
25600,-0.0341797,-0.750977,0.573242,
25620,-0.0263672,-0.728516,0.574219,
25640,-0.0410156,-0.721191,0.571777,
25660,-0.0791016,-0.69873,0.597168,
25680,-0.104492,-0.744629,0.616211,
25700,-0.131836,-0.737305,0.68457,
25720,-0.155273,-0.673828,0.678711,
25740,-0.149414,-0.621582,0.69873,
25760,-0.118652,-0.690918,0.740723,
25780,-0.17041,-0.699219,0.750488,
25800,-0.191895,-0.606934,0.781738,
25820,-0.174316,-0.549316,0.803711,
25840,-0.153809,-0.562988,0.871582,
25860,-0.186523,-0.552734,0.885254,
25880,-0.20459,-0.500488,0.897461,
25900,-0.209473,-0.456543,0.914551,
25920,-0.236328,-0.392578,0.929688,
25940,-0.270508,-0.325195,0.88623,
25960,-0.292969,-0.316895,0.858398,
25980,-0.265625,-0.320313,0.886719,
26000,-0.208496,-0.360352,0.916016,
26020,-0.146973,-0.386719,0.908691,
26040,-0.111328,-0.391602,0.878418,
26060,-0.0986328,-0.366699,0.84668,
26080,-0.0800781,-0.376465,0.822754,
26100,-0.0458984,-0.418945,0.794922,
26120,-0.012207,-0.430176,0.773926,
26140,0.0327148,-0.444336,0.756836,
26160,0.0683594,-0.44873,0.71875,
26180,0.0522461,-0.461914,0.6875,
26200,0.0537109,-0.466797,0.663574,
26220,0.0776367,-0.491699,0.670898,
26240,0.108398,-0.536133,0.645508,
26260,0.101074,-0.550781,0.615234,
26280,0.097168,-0.572266,0.575195,
26300,0.0961914,-0.596191,0.525879,
26320,0.108887,-0.664551,0.496094,
26340,0.152344,-0.717773,0.514648,
26360,0.162109,-0.744629,0.526855,
26380,0.0830078,-0.719727,0.509277,
26400,0.0078125,-0.733398,0.526855,
26420,-0.00830078,-0.749512,0.522461,
26440,-0.0307617,-0.780273,0.555176,
26460,-0.050293,-0.773926,0.556641,
26480,-0.0795898,-0.764648,0.583496,
26500,-0.0927734,-0.775879,0.63916,
26520,-0.146973,-0.742676,0.688477,
26540,-0.17041,-0.725098,0.831055,
26560,-0.177734,-0.719727,0.839844,
26580,-0.205078,-0.698242,0.770996,
26600,-0.251465,-0.665039,0.754883,
26620,-0.237793,-0.622559,0.769531,
26640,-0.192383,-0.592773,0.860352,
26660,-0.186523,-0.53418,0.891602,
26680,-0.214844,-0.445801,0.883301,
26700,-0.206543,-0.404297,0.893555,
26720,-0.198242,-0.389648,0.915039,
26740,-0.208496,-0.376953,0.90625,
26760,-0.182129,-0.415039,0.883789,
26780,-0.17334,-0.428223,0.873535,
26800,-0.162598,-0.398438,0.864746,
26820,-0.126465,-0.40625,0.830566,
26840,-0.0854492,-0.413086,0.833496,
26860,-0.0439453,-0.460449,0.82959,
26880,-0.0219727,-0.479004,0.796875,
26900,-0.00585938,-0.441895,0.75293,
26920,0.0112305,-0.421387,0.710938,
26940,0.0327148,-0.430176,0.671387,
26960,0.0483398,-0.435547,0.651367,
26980,0.0688477,-0.466797,0.666992,
27000,0.110352,-0.487793,0.668457,
27020,0.108887,-0.51416,0.658203,
27040,0.0927734,-0.532715,0.628906,
27060,0.0913086,-0.582031,0.594727,
27080,0.10498,-0.647949,0.570313,
27100,0.115234,-0.618652,0.571289,
27120,0.152344,-0.60791,0.575684,
27140,0.119141,-0.602539,0.556641,
27160,0.0844727,-0.654785,0.52832,
27180,0.0830078,-0.727539,0.549805,
27200,0.0898438,-0.806152,0.526855,
27220,0.0625,-0.791016,0.505859,
27240,0.00976563,-0.65625,0.512695,
27260,-0.0986328,-0.606934,0.419434,
27280,-0.144531,-0.724609,0.482422,
27300,-0.146973,-0.807129,0.592285,
27320,-0.134277,-0.779297,0.65918,
27340,-0.22998,-0.692383,0.580566,
27360,-0.259277,-0.75,0.602051,
27380,-0.21582,-0.829102,0.671875,
27400,-0.122559,-0.856934,0.713379,
27420,-0.109375,-0.852539,0.760254,
27440,-0.128418,-0.828125,0.799316,
27460,-0.188477,-0.700684,0.761719,
27480,-0.257813,-0.624023,0.761719,
27500,-0.238281,-0.647461,0.788574,
27520,-0.203125,-0.687012,0.84082,
27540,-0.130859,-0.680176,0.901367,
27560,-0.166016,-0.619629,0.903809,
27580,-0.246094,-0.512695,0.858887,
27600,-0.20752,-0.452637,0.861328,
27620,-0.195801,-0.517578,0.857422,
27640,-0.188477,-0.511719,0.882813,
27660,-0.163574,-0.544434,0.913574,
27680,-0.0947266,-0.498535,0.896484,
27700,-0.0551758,-0.472656,0.862305,
27720,-0.0327148,-0.443359,0.839844,
27740,-0.0180664,-0.437012,0.813477,
27760,0.00683594,-0.433105,0.785156,
27780,0.0341797,-0.404785,0.738281,
27800,0.0415039,-0.391113,0.714355,
27820,0.0517578,-0.390137,0.686035,
27840,0.0688477,-0.380859,0.68457,
27850,0.0825195,-0.38623,0.640625,
27870,0.078125,-0.40625,0.595703,
27890,0.114746,-0.468262,0.610352,
27910,0.157227,-0.512695,0.591309,
27930,0.157227,-0.533203,0.547852,
27950,0.124023,-0.558594,0.515625,
27970,0.124023,-0.600586,0.49707,
27990,0.159668,-0.590332,0.532227,
28010,0.162598,-0.581055,0.535156,
28030,0.125,-0.634277,0.513184,
28050,0.0996094,-0.756836,0.475098,
28070,0.105957,-0.799316,0.490234,
28090,0.0927734,-0.725586,0.526855,
28110,0.0205078,-0.618652,0.517578,
28130,-0.0581055,-0.679688,0.507813,
28150,-0.0996094,-0.750488,0.597656,
28170,-0.0410156,-0.788574,0.623047,
28190,-0.14209,-0.748535,0.623047,
28210,-0.236328,-0.826172,0.61084,
28230,-0.213379,-0.810059,0.633789,
28250,-0.125977,-0.766602,0.671387,
28270,-0.105469,-0.79248,0.723633,
28290,-0.12793,-0.794922,0.757813,
28310,-0.120117,-0.722168,0.825684,
28330,-0.117188,-0.708984,0.832031,
28350,-0.165527,-0.661621,0.888672,
28370,-0.195313,-0.572754,0.914063,
28390,-0.212402,-0.550293,0.935059,
28410,-0.212402,-0.557617,0.950195,
28430,-0.211914,-0.5625,0.971191,
28450,-0.20166,-0.501465,0.975586,
28470,-0.185547,-0.488281,0.960938,
28490,-0.182129,-0.519531,0.947754,
28510,-0.156738,-0.501953,0.911621,
28530,-0.121582,-0.477051,0.91748,
28550,-0.0644531,-0.508301,0.893066,
28570,-0.0439453,-0.490234,0.835449,
28590,-0.0405273,-0.449219,0.797852,
28610,-0.00585938,-0.44043,0.753418,
28630,0.0166016,-0.425781,0.719238,
28650,0.0341797,-0.383789,0.691895,
28670,0.0473633,-0.360352,0.672363,
28690,0.0546875,-0.377441,0.668457,
28710,0.0761719,-0.419922,0.631348,
28730,0.0795898,-0.433105,0.608398,
28750,0.105469,-0.450195,0.576172,
28770,0.135742,-0.450684,0.555664,
28790,0.164063,-0.469238,0.538574,
28810,0.193359,-0.504395,0.52832,
28830,0.191406,-0.539551,0.493652,
28850,0.15625,-0.543457,0.483398,
28870,0.164551,-0.572266,0.461426,
28890,0.217285,-0.619629,0.479492,
28910,0.246094,-0.662109,0.509766,
28930,0.209473,-0.694824,0.500977,
28950,0.140137,-0.768555,0.493652,
28970,0.137207,-0.779297,0.509766,
28990,0.104492,-0.726563,0.491211,
29010,-0.015625,-0.699707,0.45166,
29030,-0.100098,-0.712891,0.51709,
29050,-0.125977,-0.699219,0.563965,
29070,-0.155762,-0.734863,0.615234,
29090,-0.196777,-0.747559,0.626465,
29110,-0.147949,-0.831055,0.711914,
29130,-0.03125,-0.899414,0.713867,
29150,-0.000488281,-0.918945,0.734863,
29170,-0.0292969,-0.899902,0.730957,
29190,-0.090332,-0.8125,0.73291,
29210,-0.0541992,-0.738281,0.792969,
29230,-0.050293,-0.71875,0.810547,
29250,-0.108398,-0.679199,0.797852,
29270,-0.16748,-0.639648,0.807617,
29290,-0.145996,-0.637695,0.88623,
29310,-0.177734,-0.654297,0.916016,
29330,-0.185059,-0.644531,0.937988,
29350,-0.173828,-0.620117,0.950195,
29370,-0.146973,-0.570801,0.957031,
29390,-0.115723,-0.574707,0.940918,
29410,-0.0917969,-0.573242,0.905273,
29430,-0.0737305,-0.568848,0.873535,
29450,-0.0351563,-0.551758,0.830078,
29470,0.00537109,-0.507324,0.807129,
29490,0.019043,-0.490234,0.779785,
29510,0.0493164,-0.483398,0.758301,
29530,0.0913086,-0.470215,0.710449,
29540,0.0820313,-0.460938,0.660156,
29570,0.0771484,-0.471191,0.623047,
29590,0.108398,-0.48584,0.577148,
29610,0.106445,-0.449707,0.521484,
29630,0.133789,-0.459473,0.50293,
29650,0.163086,-0.454102,0.49707,
29670,0.179199,-0.511719,0.527344,
29690,0.194824,-0.545898,0.494629,
29710,0.161133,-0.546387,0.486816,
29730,0.150391,-0.560059,0.467285,
29740,0.184082,-0.57666,0.484375,
29760,0.233887,-0.600586,0.505859,
29780,0.213867,-0.625488,0.497559,
29800,0.16748,-0.662598,0.486328,
29820,0.162109,-0.674316,0.483398,
29840,0.15332,-0.705078,0.520996,
29860,0.149414,-0.787109,0.49707,
29880,0.155273,-0.807617,0.509277,
29900,0.125,-0.768066,0.537109,
29920,0.0541992,-0.712402,0.538574,
29940,-0.0292969,-0.72998,0.519043,
29960,-0.0151367,-0.835449,0.578613,
29980,0.0136719,-0.86377,0.623047,
30000,-0.00732422,-0.828125,0.638672,
30020,-0.0654297,-0.789551,0.618652,
30040,-0.0800781,-0.769043,0.624512,
30060,-0.0751953,-0.785156,0.679199,
30080,-0.126465,-0.73291,0.714844,
30100,-0.14209,-0.719238,0.751465,
30120,-0.121582,-0.799316,0.770996,
30140,-0.205078,-0.755859,0.725586,
30160,-0.212402,-0.65625,0.769531,
30180,-0.162109,-0.651367,0.821289,
30200,-0.135254,-0.797363,0.868652,
30220,-0.120117,-0.856445,0.875977,
30240,-0.160645,-0.772461,0.85791,
30260,-0.167969,-0.660156,0.853516,
30280,-0.157715,-0.571289,0.84375,
30300,-0.16748,-0.59082,0.84082,
30320,-0.162598,-0.592773,0.838379,
30340,-0.127441,-0.612793,0.839844,
30360,-0.116211,-0.568359,0.79541,
30380,-0.122559,-0.51416,0.77832,
30400,-0.0791016,-0.512695,0.764648,
30420,-0.0395508,-0.525391,0.746094,
30440,-0.00927734,-0.533691,0.736328,
30460,0.0214844,-0.528809,0.725098,
30480,0.0488281,-0.517578,0.6875,
30500,0.0541992,-0.489746,0.66748,
30520,0.0820313,-0.52002,0.618164,
30540,0.131348,-0.504395,0.572754,
30560,0.169434,-0.508301,0.538574,
30580,0.1875,-0.492676,0.508789,
30600,0.182617,-0.535156,0.525391,
30620,0.220215,-0.58252,0.510742,
30640,0.23877,-0.573242,0.491699,
30660,0.226074,-0.579102,0.480957,
30680,0.228027,-0.58252,0.476563,
30700,0.25293,-0.64502,0.469727,
30720,0.249512,-0.723145,0.452148,
30740,0.234375,-0.757813,0.456055,
30760,0.244141,-0.759766,0.490723,
30780,0.222656,-0.773438,0.501465,
30800,0.169922,-0.778809,0.483398,
30820,0.0786133,-0.776367,0.463867,
30840,0.043457,-0.753906,0.489258,
30860,0.0688477,-0.77002,0.540527,
30880,0.081543,-0.811035,0.552734,
30900,-0.0195313,-0.802734,0.568848,
30920,-0.0771484,-0.817871,0.620117,
30940,-0.0556641,-0.807129,0.645996,
30960,-0.0444336,-0.814941,0.674316,
30980,-0.0571289,-0.797363,0.677734,
31000,-0.0810547,-0.76416,0.676758,
31020,-0.0629883,-0.748535,0.747559,
31040,-0.078125,-0.763184,0.8125,
31060,-0.111816,-0.728516,0.815918,
31080,-0.124023,-0.689941,0.813477,
31100,-0.124023,-0.615234,0.827148,
31120,-0.116699,-0.608398,0.830566,
31140,-0.139648,-0.604492,0.852539,
31160,-0.157227,-0.597168,0.892578,
31180,-0.137695,-0.574219,0.887207,
31200,-0.149414,-0.547363,0.899902,
31220,-0.140625,-0.514648,0.873535,
31240,-0.134277,-0.536133,0.853027,
31260,-0.102539,-0.544922,0.851563,
31280,-0.0444336,-0.541016,0.833008,
31300,0.00390625,-0.537598,0.81543,
31320,0.0151367,-0.537598,0.785156,
31340,0.00488281,-0.516602,0.734863,
31360,0.0551758,-0.504883,0.709961,
31380,0.0976563,-0.51709,0.70166,
31400,0.0981445,-0.524902,0.678223,
31420,0.113281,-0.529297,0.637695,
31440,0.107422,-0.5,0.576172,
31460,0.112793,-0.506348,0.549316,
31480,0.155762,-0.525879,0.504883,
31500,0.199707,-0.55957,0.506348,
31520,0.212891,-0.548828,0.495117,
31540,0.198242,-0.524414,0.499512,
31560,0.21582,-0.566895,0.437988,
31580,0.214844,-0.629883,0.408691,
31600,0.239746,-0.632813,0.438965,
31620,0.28418,-0.65918,0.47168,
31640,0.299805,-0.710449,0.467773,
31660,0.26709,-0.78418,0.461914,
31680,0.22168,-0.770508,0.465332,
31700,0.182129,-0.748535,0.467773,
31720,0.179199,-0.750488,0.489746,
31740,0.161133,-0.804688,0.486328,
31760,0.0976563,-0.824707,0.487305,
31780,0.0810547,-0.832031,0.530273,
31800,0.0888672,-0.826172,0.571289,
31820,0.0449219,-0.821777,0.61377,
31840,-0.0239258,-0.82959,0.644531,
31860,-0.0249023,-0.824219,0.636719,
31880,-0.0297852,-0.79834,0.685059,
31900,-0.0131836,-0.756348,0.746582,
31920,-0.0200195,-0.791992,0.805176,
31940,-0.10791,-0.752441,0.773438,
31960,-0.097168,-0.728027,0.813477,
31980,-0.0458984,-0.708984,0.829102,
32000,-0.124023,-0.651367,0.847168,
32020,-0.208496,-0.567383,0.822266,
32040,-0.200195,-0.526367,0.870605,
32060,-0.140137,-0.5625,0.894043,
32080,-0.125488,-0.536621,0.900391,
32100,-0.161133,-0.464355,0.876465,
32120,-0.175781,-0.412598,0.869629,
32140,-0.128418,-0.441406,0.898438,
32160,-0.0952148,-0.42627,0.864746,
32180,-0.0771484,-0.398438,0.875,
32200,-0.0463867,-0.422363,0.87207,
32220,-0.0307617,-0.402344,0.826172,
32240,-0.0205078,-0.391113,0.79248,
32260,0.00488281,-0.365234,0.792969,
32280,0.0429688,-0.38623,0.764648,
32300,0.0498047,-0.387695,0.731934,
32320,0.0512695,-0.400391,0.690918,
32340,0.0678711,-0.407715,0.635742,
32360,0.113281,-0.434082,0.634277,
32380,0.15918,-0.465332,0.610352,
32400,0.158203,-0.481445,0.580566,
32420,0.142578,-0.520996,0.566406,
32440,0.177734,-0.551758,0.533691,
32460,0.208496,-0.561035,0.51709,
32480,0.221191,-0.588867,0.516602,
32500,0.230469,-0.668945,0.54541,
32520,0.24707,-0.683105,0.538574,
32540,0.24707,-0.671387,0.549316,
32560,0.23291,-0.619141,0.574707,
32580,0.160645,-0.67627,0.52002,
32600,0.126953,-0.862793,0.498535,
32620,0.106934,-0.88916,0.514648,
32640,0.0786133,-0.739258,0.521973,
32660,0.0581055,-0.648438,0.579102,
32680,0.019043,-0.713379,0.607422,
32700,-0.0302734,-0.841309,0.60791,
32720,-0.0644531,-0.83252,0.61377,
32740,-0.0693359,-0.696777,0.655273,
32760,-0.0698242,-0.669922,0.676758,
32780,-0.0629883,-0.750488,0.717773,
32800,-0.0527344,-0.794922,0.765625,
32820,-0.065918,-0.721191,0.765137,
32840,-0.0942383,-0.634766,0.806641,
32860,-0.0644531,-0.631348,0.901855,
32880,-0.0634766,-0.641602,0.929199,
32900,-0.115234,-0.571777,0.930664,
32920,-0.145508,-0.489258,0.933594,
32940,-0.225098,-0.407715,0.864746,
32960,-0.316895,-0.312988,0.839844,
32980,-0.311035,-0.295898,0.831543,
32990,-0.250977,-0.32666,0.907227,
33010,-0.190918,-0.343262,0.947266,
33030,-0.197754,-0.316406,0.946289,
33050,-0.188965,-0.359863,0.925293,
33070,-0.142578,-0.401855,0.902832,
33090,-0.0639648,-0.417969,0.888672,
33110,0.0078125,-0.418457,0.862793,
33130,0.0307617,-0.405273,0.822754,
33150,0.0395508,-0.398926,0.788574,
33170,0.0776367,-0.398438,0.770996,
33190,0.116211,-0.391113,0.752441,
33210,0.12793,-0.38623,0.729004,
33230,0.140625,-0.400879,0.679688,
33250,0.154297,-0.399902,0.651855,
33270,0.166504,-0.429199,0.635254,
33290,0.181641,-0.438477,0.616211,
33310,0.19873,-0.476563,0.616211,
33330,0.193359,-0.502441,0.569824,
33350,0.192871,-0.54834,0.540527,
33370,0.228027,-0.580566,0.541992,
33390,0.233398,-0.551758,0.550293,
33410,0.23877,-0.563477,0.530762,
33430,0.246094,-0.623535,0.543457,
33450,0.24707,-0.67041,0.520996,
33470,0.211914,-0.687012,0.508301,
33490,0.177734,-0.721191,0.51709,
33510,0.213379,-0.73877,0.550781,
33530,0.191895,-0.723145,0.532715,
33550,0.13623,-0.766602,0.536133,
33570,0.12793,-0.79248,0.553223,
33590,0.107422,-0.79834,0.577148,
33610,0.0366211,-0.733398,0.59082,
33630,-0.019043,-0.692871,0.599121,
33650,-0.0297852,-0.718262,0.61084,
33670,-0.0200195,-0.885254,0.668945,
33690,0.00683594,-0.934082,0.726563,
33710,0.00146484,-0.803223,0.71875,
33730,-0.0126953,-0.662109,0.731934,
33750,-0.050293,-0.626953,0.758301,
33770,-0.102051,-0.633789,0.749512,
33790,-0.10498,-0.651367,0.793945,
33810,-0.0913086,-0.644531,0.876465,
33830,-0.121582,-0.587891,0.869629,
33850,-0.173828,-0.539063,0.883789,
33870,-0.158203,-0.550781,0.92627,
33890,-0.141113,-0.564941,0.92041,
33910,-0.153809,-0.525391,0.892578,
33930,-0.146973,-0.498535,0.868652,
33950,-0.135254,-0.483887,0.872559,
33970,-0.0996094,-0.470703,0.887207,
33990,-0.0708008,-0.444336,0.871582,
34010,-0.0571289,-0.41748,0.858398,
34030,-0.046875,-0.40918,0.833496,
34050,-0.00830078,-0.414063,0.825195,
34070,0.0322266,-0.434082,0.810059,
34090,0.043457,-0.431152,0.768555,
34110,0.0625,-0.424316,0.750488,
34130,0.0844727,-0.454102,0.708984,
34150,0.0830078,-0.436035,0.687012,
34170,0.112793,-0.406738,0.682129,
34190,0.12207,-0.411133,0.651855,
34210,0.119141,-0.441895,0.611816,
34230,0.118652,-0.492676,0.557617,
34250,0.153809,-0.523438,0.546387,
34270,0.205566,-0.532715,0.5625,
34290,0.210449,-0.543945,0.571289,
34310,0.187988,-0.553711,0.547852,
34330,0.17627,-0.603516,0.511719,
34350,0.15918,-0.681152,0.510742,
34370,0.185059,-0.692383,0.555176,
34390,0.188477,-0.687988,0.55957,
34410,0.141602,-0.6875,0.534668,
34430,0.0800781,-0.689453,0.532715,
34450,0.0629883,-0.720703,0.556152,
34470,0.0654297,-0.716797,0.554688,
34490,0.0180664,-0.709473,0.543945,
34510,-0.0366211,-0.716309,0.583984,
34530,-0.0361328,-0.72168,0.625,
34550,-0.0166016,-0.716309,0.677246,
34570,-0.0180664,-0.739746,0.713379,
34590,-0.0410156,-0.762207,0.750488,
34610,-0.0576172,-0.765137,0.751465,
34630,-0.0639648,-0.728516,0.743652,
34650,-0.0688477,-0.682129,0.766602,
34670,-0.0688477,-0.705566,0.809082,
34690,-0.097168,-0.679199,0.816895,
34710,-0.10791,-0.639648,0.820801,
34730,-0.127441,-0.620117,0.852539,
34750,-0.136719,-0.628906,0.87207,
34770,-0.142578,-0.598633,0.866211,
34790,-0.143555,-0.580566,0.874512,
34810,-0.145508,-0.572266,0.871582,
34830,-0.156738,-0.515625,0.868164,
34850,-0.141602,-0.505859,0.875,
34870,-0.109375,-0.538574,0.88623,
34890,-0.0888672,-0.522461,0.878906,
34900,-0.0751953,-0.491699,0.858887,
34920,-0.0522461,-0.468262,0.837402,
34940,-0.0224609,-0.45459,0.816895,
34960,-0.00195313,-0.455078,0.790039,
34980,0.00732422,-0.442383,0.778809,
35000,0.0229492,-0.447754,0.754883,
35020,0.0195313,-0.421875,0.718262,
35040,0.0146484,-0.432129,0.688965,
35060,0.0424805,-0.46582,0.669922,
35080,0.0722656,-0.472656,0.646484,
35100,0.0776367,-0.47998,0.623535,
35120,0.105957,-0.505859,0.593262,
35140,0.121094,-0.53125,0.571289,
35160,0.126953,-0.51416,0.549805,
35180,0.13623,-0.53418,0.530762,
35200,0.168945,-0.638184,0.50293,
35220,0.247559,-0.688965,0.489746,
35240,0.274414,-0.679688,0.478027,
35260,0.241699,-0.603516,0.522461,
35280,0.197754,-0.605957,0.519531,
35300,0.134277,-0.681641,0.508789,
35320,0.0986328,-0.747559,0.510254,
35340,0.0498047,-0.733887,0.54834,
35360,0.046875,-0.711914,0.607422,
35380,0.0322266,-0.715332,0.658203,
35400,-0.0292969,-0.750488,0.674805,
35420,-0.120117,-0.732422,0.682617,
35440,-0.10791,-0.726563,0.724121,
35460,-0.0844727,-0.769531,0.741211,
35480,-0.0927734,-0.76416,0.755371,
35500,-0.110352,-0.735352,0.787598,
35520,-0.0952148,-0.712891,0.819336,
35540,-0.0888672,-0.69873,0.815918,
35560,-0.146973,-0.634277,0.815918,
35580,-0.133789,-0.582031,0.837402,
35600,-0.104004,-0.622559,0.875488,
35620,-0.109375,-0.627441,0.870605,
35640,-0.15332,-0.549316,0.871582,
35660,-0.157715,-0.519043,0.882813,
35680,-0.166016,-0.494141,0.874512,
35700,-0.172363,-0.461426,0.865723,
35720,-0.15625,-0.461426,0.868652,
35740,-0.143066,-0.449707,0.84668,
35760,-0.162109,-0.418945,0.83252,
35780,-0.138672,-0.424316,0.824707,
35800,-0.0844727,-0.460449,0.828613,
35820,-0.0449219,-0.452637,0.805176,
35840,-0.00878906,-0.435059,0.801758,
35860,0.0205078,-0.442383,0.765625,
35880,0.0439453,-0.426758,0.723145,
35900,0.0546875,-0.415527,0.689453,
35920,0.0615234,-0.450195,0.681641,
35940,0.104492,-0.470215,0.681641,
35960,0.147949,-0.475586,0.647461,
35980,0.141113,-0.482422,0.613281,
36000,0.161621,-0.547363,0.603027,
36020,0.19873,-0.597656,0.588379,
36040,0.197266,-0.575195,0.55127,
36060,0.191895,-0.581543,0.532227,
36080,0.226074,-0.666016,0.510742,
36100,0.267578,-0.688477,0.506836,
36120,0.27002,-0.660156,0.52002,
36140,0.229004,-0.673828,0.520508,
36160,0.181152,-0.711914,0.507324,
36180,0.155273,-0.774902,0.500488,
36200,0.132813,-0.751465,0.481445,
36220,0.118652,-0.710449,0.516113,
36240,0.0957031,-0.669922,0.540039,
36260,0.0380859,-0.733398,0.561523,
36280,0.0161133,-0.762207,0.585938,
36300,0.0151367,-0.759277,0.628906,
36320,0.0219727,-0.747559,0.658203,
36340,0.00195313,-0.757324,0.667969,
36360,-0.0131836,-0.773438,0.665039,
36380,-0.0820313,-0.739258,0.657715,
36400,-0.0849609,-0.686035,0.704102,
36420,-0.0834961,-0.702148,0.719727,
36440,-0.110352,-0.739746,0.729004,
36460,-0.14209,-0.677734,0.72168,
36480,-0.125,-0.666016,0.724609,
36500,-0.135742,-0.633789,0.686035,
36520,-0.146484,-0.640137,0.70166,
36540,-0.14209,-0.67041,0.748047,
36560,-0.0961914,-0.674805,0.81543,
36580,-0.120117,-0.628906,0.824707,
36600,-0.137695,-0.65918,0.831543,
36620,-0.131836,-0.668457,0.826172,
36640,-0.15332,-0.654297,0.837402,
36660,-0.164551,-0.678223,0.858398,
36680,-0.143555,-0.690918,0.841797,
36700,-0.154785,-0.658203,0.807617,
36720,-0.163086,-0.618652,0.807129,
36740,-0.113281,-0.614258,0.799805,
36760,-0.0849609,-0.60498,0.763184,
36780,-0.09375,-0.587891,0.737305,
36800,-0.0698242,-0.558594,0.728516,
36820,-0.000976563,-0.549805,0.706543,
36840,0.00292969,-0.536133,0.666016,
36860,-0.0102539,-0.523438,0.661133,
36880,0.0263672,-0.49707,0.67334,
36900,0.0776367,-0.525879,0.680664,
36920,0.0561523,-0.516113,0.644043,
36940,0.0605469,-0.5,0.660156,
36960,0.0756836,-0.47168,0.675293,
36980,0.0810547,-0.507324,0.692383,
37000,0.0976563,-0.554688,0.682617,
37020,0.0913086,-0.521484,0.648438,
37040,0.103027,-0.484863,0.669922,
37060,0.12207,-0.509766,0.666992,
37080,0.121094,-0.538574,0.662598,
37100,0.132324,-0.568848,0.691406,
37120,0.111816,-0.556152,0.710938,
37140,0.0961914,-0.554688,0.717285,
37160,0.0957031,-0.54834,0.729492,
37180,0.103516,-0.537598,0.733887,
37200,0.100586,-0.555176,0.730957,
37220,0.0966797,-0.549316,0.737305,
37240,0.103516,-0.563477,0.75293,
37260,0.0947266,-0.571777,0.75,
37280,0.0541992,-0.527344,0.742676,
37300,0.0488281,-0.493164,0.72998,
37320,0.0859375,-0.519531,0.758789,
37340,0.0561523,-0.523438,0.731934,
37360,0.0283203,-0.505859,0.746582,
37380,0.0297852,-0.507813,0.744629,
37400,0.0307617,-0.514648,0.746094,
37420,0.0317383,-0.510742,0.730469,
37440,0.0307617,-0.503906,0.750488,
37460,0.0410156,-0.524902,0.751953,
37480,0.0551758,-0.537598,0.734375,
37500,0.0512695,-0.549316,0.737793,
37520,0.0488281,-0.557617,0.75293,
37540,0.0522461,-0.563965,0.753418,
37560,0.0478516,-0.553711,0.742676,
37580,0.0439453,-0.559082,0.736816,
37600,0.0449219,-0.557129,0.740723,
